Temperature(°C),Humidity(%),Average_Weight(g),Accel_X(m/s²),Accel_Y(m/s²),Accel_Z(m/s²),Average_RPM
31.24,64.95,296.0,2.76,-4.02,6.94,1483.11
48.52,63.32,186.9,-0.81,-8.1,-0.11,1762.2
41.96,57.05,219.33,9.29,-7.47,-6.09,926.36
37.96,74.29,282.66,-5.62,-6.39,4.73,578.36
24.68,69.06,246.42,1.76,-5.93,-1.63,637.69
24.68,84.63,297.71,4.0,-5.15,1.89,1393.9
21.74,51.28,342.24,6.51,-4.89,-7.85,1135.12
45.99,75.75,173.31,-1.86,-0.89,2.63,972.99
38.03,80.52,291.91,3.74,0.19,-2.53,405.55
41.24,80.38,196.07,-3.94,-3.82,-3.32,1750.91
20.62,85.44,232.9,-1.29,8.15,9.6,1562.04
49.1,79.16,156.57,7.91,1.06,-1.35,281.28
44.97,87.11,177.18,9.0,5.75,3.56,734.78
26.37,63.31,213.96,4.38,8.48,2.55,1084.26
25.45,70.13,218.4,-2.51,-6.74,-7.91,908.68
25.5,50.56,329.92,6.4,-1.44,4.96,795.59
29.13,50.28,298.36,-9.48,-1.34,-3.54,1437.66
35.74,59.61,344.44,-7.95,-2.91,5.98,109.01
32.96,54.03,269.81,3.23,-9.82,2.15,942.82
28.74,60.41,198.34,-4.18,6.32,-3.66,524.36
38.36,57.08,215.53,9.03,-7.77,-2.87,169.24
24.18,51.14,213.97,-1.28,9.91,4.63,929.77
28.76,86.37,215.3,-1.41,5.46,1.0,342.74
30.99,50.33,284.59,3.56,1.6,3.37,516.45
33.68,79.44,256.16,5.35,-6.91,-6.83,1014.02
43.56,56.09,227.08,-0.49,0.31,5.74,1947.42
25.99,86.49,179.82,-5.72,-4.78,-3.59,1368.51
35.43,85.71,154.43,5.47,-4.95,2.4,559.24
37.77,76.16,193.77,-3.59,6.59,-7.71,764.81
21.39,76.89,171.49,-6.5,-2.39,-3.57,812.27
38.23,50.21,307.09,2.63,-0.99,2.98,307.28
25.12,89.39,172.5,-8.19,6.86,-4.52,321.31
21.95,85.11,294.85,9.43,-8.24,7.61,296.79
48.47,85.8,227.13,2.65,1.89,3.22,1043.33
48.97,76.37,164.68,9.72,1.56,7.41,1348.37
44.25,63.79,312.55,-3.22,-1.5,-2.09,1181.44
29.14,85.75,265.93,9.42,6.6,-9.32,1955.53
22.93,61.66,197.15,-7.09,8.86,1.52,251.75
40.53,72.51,328.94,-9.19,-0.69,-3.22,1972.95
33.2,53.99,159.05,-9.34,-0.88,-1.04,933.35
23.66,86.88,190.36,-0.7,0.04,3.62,437.27
34.86,55.63,300.41,-8.34,4.46,4.01,1886.56
21.03,59.0,291.88,0.24,3.36,-9.45,937.23
47.28,72.33,207.85,-3.45,-5.54,5.39,694.69
27.76,80.56,162.4,-3.29,-8.72,-0.13,427.62
39.88,74.77,321.62,2.71,8.99,1.13,535.75
29.35,59.29,212.74,-6.74,-4.78,-4.04,1958.44
35.6,50.04,189.14,5.33,2.77,-1.58,607.95
36.4,80.29,253.21,1.64,6.57,4.21,1955.61
25.55,89.41,332.05,8.3,-3.99,5.53,660.43
49.09,82.4,158.71,-2.7,2.71,-2.26,462.84
43.25,68.41,303.16,9.65,-7.84,3.82,366.73
48.18,86.15,264.49,1.52,9.4,-4.84,823.71
46.84,66.39,235.09,9.47,-8.84,6.64,473.61
37.94,71.0,298.82,-9.46,-1.24,2.2,1393.88
47.66,69.09,343.16,4.56,0.74,5.5,479.54
22.65,67.9,195.84,6.33,5.81,-0.46,1670.79
25.88,81.01,178.73,-8.94,-7.58,-5.42,1668.02
21.36,71.07,332.58,1.58,-1.18,-1.42,571.05
29.76,62.67,283.79,6.04,-4.01,-2.37,1507.08
31.66,60.33,237.6,1.22,-3.76,-3.35,1715.09
28.14,51.51,264.65,-8.72,5.58,-5.76,1180.27
44.86,73.33,299.12,3.87,-9.89,5.18,732.66
30.7,59.2,304.61,-8.79,4.98,-8.27,881.93
28.43,55.93,333.98,6.35,6.21,7.75,1572.46
36.28,76.15,235.37,-9.14,8.03,-6.5,586.63
24.23,77.25,208.68,-7.25,2.54,9.6,668.92
44.07,80.09,277.93,-4.5,-3.33,9.77,321.57
22.24,70.14,233.15,2.67,-1.46,-2.03,798.1
49.61,85.76,268.92,9.53,9.39,9.76,173.03
43.17,87.45,234.0,-7.64,7.62,7.38,642.07
25.96,82.29,180.6,-7.15,-0.73,-8.35,746.96
20.17,75.42,243.89,-2.62,8.86,8.95,510.96
44.46,62.15,288.18,6.72,6.46,-9.15,202.72
41.21,89.32,309.86,-0.66,8.02,-6.36,1043.33
41.87,60.97,248.67,-3.57,3.66,1.69,1730.16
43.14,58.11,183.05,1.22,7.15,-8.39,671.29
22.22,67.69,232.94,-4.79,7.84,-6.77,473.6
30.75,52.27,307.26,-1.98,-8.16,9.07,570.08
23.48,89.14,232.57,-3.35,9.3,9.89,1723.77
45.89,73.54,289.31,6.08,-3.33,5.96,1055.62
38.7,72.28,251.44,8.49,-1.2,0.3,261.58
29.93,76.23,198.24,5.19,5.84,8.01,1418.44
21.91,69.88,309.23,-1.22,3.3,-7.76,308.74
29.33,51.28,166.84,0.09,7.86,8.86,120.49
29.76,74.49,254.98,-7.5,-1.99,-2.97,511.37
41.89,78.65,191.78,4.94,-2.53,7.23,336.18
39.13,66.67,163.41,1.93,-9.37,3.37,1209.99
46.62,80.29,250.59,8.05,-0.75,9.21,969.13
34.17,59.08,249.91,-5.99,4.48,7.29,1448.13
23.59,58.85,291.38,5.19,-3.98,7.76,1023.14
41.4,56.46,298.95,3.69,-0.75,2.64,838.01
42.82,64.88,295.56,-4.68,-5.61,6.66,1052.44
36.84,83.88,231.91,3.35,5.46,5.14,868.97
43.13,83.12,276.34,8.49,-8.79,-6.77,74.17
34.81,65.31,265.39,8.37,4.11,2.97,1361.4
35.68,73.56,234.31,4.39,-2.42,-7.04,1924.26
32.83,78.83,269.44,-9.04,-9.17,7.39,844.07
20.76,59.65,339.45,7.45,7.07,-8.68,847.47
23.24,56.73,188.58,3.16,-0.25,9.74,91.54
20.94,88.88,331.15,-3.79,1.99,-1.99,1780.76
39.09,74.7,160.69,-6.25,4.64,-6.59,1858.24
29.43,89.26,211.68,-7.68,3.1,8.71,1626.28
35.26,63.51,207.63,-9.0,4.62,-9.09,212.69
47.23,78.12,275.27,5.08,5.25,-0.6,1800.45
27.48,58.9,176.24,-5.28,1.78,5.4,47.91
32.31,60.45,326.47,-9.51,-2.69,-3.66,889.15
42.67,70.48,315.71,-2.05,-5.14,0.58,1001.25
26.86,62.78,280.41,-0.35,8.06,4.01,1668.0
22.31,56.7,241.68,-6.62,9.4,9.04,1501.72
28.69,60.52,336.59,-9.12,-2.85,-7.95,1594.19
24.84,51.43,316.15,-6.22,-7.75,-6.86,1735.8
47.89,78.18,249.86,3.58,-5.55,0.18,952.14
44.24,69.68,290.37,-8.36,3.41,-1.63,1560.5
39.0,53.77,263.39,1.1,-6.54,-1.78,136.07
46.14,56.87,267.59,-7.07,5.6,-4.06,889.09
44.11,54.1,216.2,-6.09,8.46,1.21,60.27
25.6,74.5,75.22,-2.14,9.27,7.67,1830.63
46.78,53.77,165.62,-7.98,-9.81,-6.78,1916.83
36.18,80.17,221.47,-6.54,9.16,-5.69,167.88
44.22,50.82,289.17,-3.02,4.8,3.42,1065.25
46.88,59.98,340.64,-3.41,-8.32,-8.88,650.28
29.54,85.63,342.61,4.99,-1.7,3.48,685.07
23.3,78.74,261.14,-8.5,4.0,-3.71,901.4
26.84,52.92,271.32,7.21,9.13,-2.84,250.13
32.81,82.85,187.14,6.32,-6.72,-1.89,361.54
44.54,69.72,289.06,5.32,-7.45,-3.01,1154.74
45.82,83.87,164.13,-3.81,-0.55,6.82,37.51
20.21,74.03,75.22,6.46,9.36,8.92,1199.6
35.32,77.27,283.67,-6.34,9.43,0.96,637.83
32.52,89.74,212.06,-7.51,-5.44,1.64,1664.41
26.66,59.29,159.97,-9.1,-3.61,-8.59,1200.01
23.6,74.96,316.37,8.79,8.16,4.26,1416.18
30.13,68.41,212.07,-3.84,4.7,1.68,228.85
48.29,51.58,162.62,8.35,9.45,-8.99,531.72
29.7,50.58,164.96,-4.55,7.86,-6.03,1993.34
35.56,54.77,200.35,8.15,-5.7,-5.96,867.3
41.09,75.96,185.6,8.08,5.19,-6.58,717.73
30.91,72.69,304.86,8.47,-9.03,3.17,1747.71
49.15,72.14,214.34,-0.08,6.36,8.57,66.15
48.87,51.27,310.94,7.32,2.03,5.26,1069.55
27.55,68.77,184.77,9.02,9.12,-0.45,420.51
34.92,86.98,248.58,-3.51,9.2,-1.92,736.31
29.03,65.9,287.61,-1.62,-8.98,-2.27,2723.02
28.55,75.0,280.4,4.38,-6.79,2.02,75.65
21.11,81.19,270.23,-3.99,-0.32,-2.82,833.02
38.29,81.36,334.96,5.08,7.59,-5.48,1578.41
35.08,70.77,195.71,-8.52,6.29,2.06,1903.91
21.54,84.32,248.74,0.47,9.29,-2.19,1247.71
28.36,65.66,326.8,-7.55,2.36,-9.72,777.67
47.25,85.55,165.58,-4.13,-4.87,-9.56,1539.71
27.19,59.61,161.18,-4.83,-9.5,-4.52,1010.45
24.35,61.21,196.66,6.78,-5.54,0.25,735.24
34.68,52.12,276.6,-6.13,3.51,-2.92,358.18
49.57,81.82,201.98,6.17,8.53,-9.52,1592.26
27.26,66.68,188.05,5.88,-3.58,-5.54,1000.85
40.16,59.16,241.76,-0.02,7.51,-8.07,1927.61
42.85,59.27,272.72,-5.32,-2.1,8.97,1603.82
27.13,86.06,199.71,-5.46,-3.83,-3.74,840.03
41.85,83.36,210.14,-0.7,0.18,-9.7,1481.7
31.03,72.14,272.71,-9.82,-1.15,3.21,906.78
38.97,74.64,339.15,0.63,8.28,-5.35,159.73
39.01,68.97,284.95,9.06,-0.63,1.33,1033.36
36.07,65.67,306.58,-6.91,-4.45,-6.99,1731.46
22.71,86.62,223.36,1.47,6.85,9.68,1710.88
45.06,55.02,204.45,9.24,9.97,9.41,1149.93
29.62,66.74,240.85,7.21,2.96,3.12,760.05
25.6,63.78,311.43,7.01,-4.99,4.14,20.2
21.22,69.93,241.26,6.44,-5.22,-1.48,622.82
37.73,68.31,319.35,-3.82,-8.85,9.24,1979.62
40.33,70.76,347.75,7.81,-8.45,-1.53,1452.98
20.5,55.6,164.41,8.83,8.3,-5.21,1435.18
35.36,70.53,159.08,-0.08,-8.07,-7.69,1522.17
26.79,59.7,179.92,-2.91,-0.31,-5.84,1240.23
39.36,57.37,226.87,-1.72,3.96,1.44,1171.72
25.23,52.59,176.21,-3.32,7.01,-5.1,907.24
40.73,80.51,324.13,-5.75,-6.57,3.08,887.87
31.6,67.1,154.63,2.37,-1.24,-2.36,1741.7
48.1,75.07,213.16,1.25,-4.97,7.74,786.91
24.13,79.1,186.94,-0.75,-4.88,1.17,1680.58
30.23,77.17,336.31,-8.08,-3.92,2.45,1675.47
23.4,68.82,283.9,5.94,1.74,1.13,1541.8
47.74,65.52,332.41,-6.5,-9.67,7.71,75.28
46.32,65.04,344.47,-7.71,-1.82,-8.73,295.94
27.74,75.6,249.42,2.46,-6.26,-8.65,629.41
39.8,69.79,196.86,-2.03,9.34,4.03,1695.07
44.52,83.97,188.75,-8.8,1.65,5.36,1746.52
36.66,84.99,194.58,-2.89,7.36,-1.33,-110.99
35.89,56.82,291.72,5.44,-6.09,-2.95,649.45
27.26,55.45,158.09,2.3,6.2,-4.44,1700.77
22.79,75.22,160.27,-2.74,-1.7,-5.31,499.39
46.92,62.05,75.22,-6.16,-6.45,8.24,1952.01
47.01,50.74,278.41,2.64,5.22,-4.1,978.61
38.99,85.55,283.05,7.75,5.24,2.96,1874.63
30.17,59.08,224.38,2.93,9.92,5.74,857.65
30.48,87.17,311.19,6.26,5.62,-9.56,-110.99
41.78,78.7,256.72,0.43,-7.09,-9.32,724.82
46.91,80.51,171.09,4.36,-3.55,-3.34,1768.6
46.61,58.06,309.42,7.92,-0.97,3.92,661.38
43.4,59.37,340.61,5.46,-7.47,-4.78,1338.69
39.26,70.85,162.01,8.2,5.76,-9.97,939.69
22.52,56.88,228.27,-1.38,0.53,-4.24,1883.34
24.85,62.22,247.5,8.08,8.89,-8.2,318.73
46.96,62.86,179.29,2.43,1.79,-5.61,857.31
38.19,56.39,323.54,7.4,0.46,-3.34,249.27
20.28,58.21,206.83,-9.21,-8.57,-7.44,1156.28
23.04,81.54,306.6,3.16,-7.01,4.13,805.8
39.91,56.69,284.2,6.96,6.99,-4.88,121.87
20.15,51.14,269.61,-6.52,9.81,3.22,1699.68
24.82,75.17,188.43,3.24,-1.7,1.98,751.03
36.46,89.04,194.14,6.5,6.2,7.96,987.26
40.76,63.25,159.47,-4.24,2.55,-8.24,815.03
39.56,54.75,198.14,-1.9,9.18,-5.71,977.31
26.73,72.82,219.09,1.39,-5.24,7.3,32.65
41.37,86.25,316.63,0.38,0.9,6.44,1630.92
27.12,81.36,223.28,-9.22,-1.82,-6.16,664.62
29.76,74.9,300.92,-8.03,0.83,-7.85,1448.92
42.39,62.6,237.89,-7.99,-4.62,7.12,129.77
39.49,71.68,306.97,-4.75,-0.05,-6.44,1047.65
45.48,53.65,345.25,-5.08,2.5,7.42,1817.58
39.73,77.16,197.97,4.84,-8.38,9.22,796.5
37.05,79.0,322.47,1.45,4.86,-5.58,394.52
22.81,88.6,274.36,5.28,4.13,6.81,198.16
31.03,60.42,313.46,-8.6,7.61,-1.52,1718.18
27.96,50.74,280.32,-0.3,-1.48,5.78,477.61
27.32,71.82,234.79,-3.52,-8.77,-1.85,1950.14
49.19,78.27,195.61,7.0,-0.77,-8.59,495.65
31.79,81.62,164.01,4.16,-7.25,4.25,961.98
46.76,57.75,257.1,7.39,2.95,-6.99,915.99
38.93,60.47,348.07,-9.07,-9.06,8.54,124.02
43.84,70.5,297.61,4.42,-2.52,-1.65,1063.68
35.08,63.22,215.47,0.8,-8.34,-8.36,1345.28
37.31,84.42,315.44,6.5,-9.93,-5.43,1484.27
34.78,68.95,303.8,0.14,9.21,7.25,1045.18
25.86,81.98,206.33,0.8,9.92,-3.58,1625.17
41.67,73.22,152.86,-8.96,1.11,7.13,1504.2
28.42,80.92,173.63,3.37,-5.22,-6.55,387.95
20.73,63.31,325.46,-4.54,8.22,-0.64,803.2
53.04,83.26,317.31,-9.61,8.46,7.57,285.16
25.31,60.98,209.04,-8.67,7.09,-9.03,266.85
48.21,71.84,207.04,9.15,0.89,-3.91,1424.25
48.62,58.56,308.57,-3.08,-8.51,8.2,1060.92
47.45,69.02,337.55,7.36,-8.23,1.93,1201.9
31.1,62.73,305.83,9.19,7.93,4.32,1464.37
20.46,60.67,271.12,8.87,7.52,6.84,554.47
47.85,88.68,198.53,7.63,-1.31,0.47,802.72
32.85,56.4,255.15,4.81,-0.56,9.53,1213.61
49.0,81.49,196.7,-4.22,2.88,2.78,193.26
48.91,89.37,311.6,-6.97,6.14,3.71,1666.11
45.59,50.8,227.39,2.79,4.63,-6.94,686.9
28.83,77.96,316.74,-0.24,2.31,8.78,1317.51
31.55,60.12,226.32,-8.03,-5.37,5.92,1991.13
45.53,51.62,314.83,3.55,-4.75,-4.92,950.72
29.51,66.12,216.66,1.26,4.48,1.6,430.1
25.08,87.41,238.03,7.26,6.05,-2.47,432.87
36.7,50.47,273.1,2.18,-7.68,3.21,120.75
48.08,73.52,164.06,1.48,-6.25,9.87,1534.16
53.04,70.06,339.64,-1.18,3.61,-9.09,586.86
37.1,84.94,264.72,-0.74,-2.22,9.05,345.45
22.92,53.36,251.56,9.09,1.27,-8.55,1427.39
38.45,77.26,317.88,-7.23,2.3,-0.78,618.27
49.7,77.2,323.15,-1.08,5.52,-0.36,1200.94
24.2,76.76,254.45,3.12,6.11,-4.63,835.65
35.55,87.69,335.45,-1.34,-4.4,1.33,668.31
46.32,82.92,162.95,-4.34,0.83,6.68,978.86
42.22,51.68,172.65,-4.25,-7.53,-4.12,627.59
40.91,68.84,269.36,-5.33,6.84,-8.59,1741.13
41.07,65.92,220.81,-3.12,6.91,2.65,146.08
30.78,62.41,242.85,7.43,-4.01,5.03,60.31
28.81,68.05,215.62,0.1,-6.79,9.09,812.79
44.28,65.37,230.95,-5.2,-8.6,-6.81,345.69
44.3,67.29,314.53,-2.31,1.5,8.03,1487.45
46.01,89.17,268.7,-7.88,-8.17,-0.36,706.87
47.4,53.55,349.47,8.08,3.61,-5.28,522.88
35.34,86.89,307.38,-1.84,3.56,9.25,718.76
35.05,69.21,204.73,9.61,2.28,-5.23,438.97
43.95,74.95,202.87,-3.05,7.53,4.67,599.3
39.5,83.21,217.18,6.73,-2.43,5.7,1135.97
41.06,64.42,318.65,-4.87,8.05,-1.39,1728.07
43.87,67.22,155.46,-8.48,-9.26,3.8,741.74
46.7,66.38,196.04,-9.37,-7.74,1.45,641.34
30.14,64.99,330.98,2.12,-1.76,-6.16,1563.58
31.27,87.02,277.98,-3.77,1.88,5.2,44.85
22.82,83.16,195.37,-1.13,-9.35,8.56,604.15
37.35,54.36,193.83,6.37,1.35,-0.23,904.34
21.08,54.32,322.52,-5.04,-3.85,9.89,1201.32
33.97,67.11,328.75,-3.83,7.74,-1.44,312.12
36.28,53.95,201.23,6.91,0.67,-0.41,865.71
28.6,74.76,234.1,-0.14,1.76,3.48,1132.6
37.72,55.75,316.92,6.55,8.91,-6.28,1020.5
20.92,70.89,304.2,-2.51,5.28,8.04,1149.1
21.12,50.29,312.78,-2.03,-1.23,6.03,1324.8
44.68,62.66,253.68,-6.66,-0.46,7.45,758.75
30.81,77.09,332.31,8.33,2.96,2.19,127.27
23.81,69.36,215.19,7.94,-6.0,7.67,111.11
35.67,89.13,181.33,9.68,-8.23,3.6,1717.43
53.04,84.96,291.75,-1.95,-3.78,0.23,1354.84
26.47,95.86,257.87,6.37,5.57,8.64,1528.37
38.69,51.82,320.92,-1.7,-4.85,-1.21,1857.61
22.56,83.83,166.23,-0.91,-7.38,0.01,1501.09
21.55,86.45,318.74,6.6,-5.62,-6.61,1384.6
35.94,82.83,208.66,-6.45,3.58,8.95,1311.52
36.22,55.12,280.97,-5.59,2.28,-5.58,517.15
39.12,89.92,158.03,-3.71,3.77,-5.97,1914.59
41.78,60.34,271.92,5.76,-3.56,-7.98,1084.09
49.28,78.97,293.45,-2.55,8.02,-0.93,444.15
35.49,86.32,223.75,-2.84,-0.96,-4.53,419.65
29.69,59.43,193.08,9.98,0.27,4.82,1630.53
43.86,86.33,257.53,-2.32,8.98,-3.85,500.42
28.12,62.38,316.64,-5.04,9.59,4.42,82.85
33.17,89.06,214.71,2.46,3.23,-6.08,856.82
22.35,61.25,200.49,6.04,8.9,-5.4,1634.7
20.76,88.14,205.79,-8.61,0.83,6.12,828.88
48.88,52.14,339.83,2.38,-3.85,-2.58,1607.1
45.08,78.37,221.86,-9.29,-3.7,-7.76,1654.42
40.88,71.28,150.72,0.53,1.18,9.23,1715.41
32.27,69.12,306.34,-4.86,2.1,-6.45,1177.8
25.2,58.94,289.85,-3.87,-1.21,-7.0,1398.94
24.69,78.22,497.15,-0.66,7.68,-2.83,523.72
27.51,57.63,346.98,8.54,-1.47,-8.09,199.4
36.48,72.11,271.61,4.21,-4.53,-6.89,1065.56
41.44,60.13,250.16,8.74,-9.84,6.93,21.16
39.81,88.22,226.44,3.2,9.41,-6.57,931.48
28.4,51.15,329.73,-9.86,6.49,-7.77,204.19
48.65,57.99,198.79,-4.69,2.31,7.6,216.84
42.14,59.69,207.15,8.12,6.61,-1.12,1741.57
36.63,66.56,174.48,2.87,6.21,-6.86,1281.04
38.35,59.31,301.82,9.63,8.64,1.63,1290.47
32.59,69.65,269.11,-6.88,-2.28,-9.17,808.95
27.43,84.9,271.81,-4.07,1.1,-1.45,826.51
30.68,78.48,193.69,-2.75,-8.03,1.81,606.22
42.74,73.2,280.23,-3.47,9.31,9.14,868.72
20.43,53.56,303.09,-4.96,9.7,-3.47,1174.25
23.48,77.76,221.58,-1.13,5.78,5.3,373.18
21.38,56.66,310.27,2.85,-0.92,-7.35,523.37
21.22,81.45,219.76,-3.77,-0.07,-1.33,989.51
45.66,60.0,301.63,-8.41,-1.29,-5.54,769.56
41.11,66.68,156.75,4.17,-4.13,-0.15,1638.97
34.23,64.02,260.23,-0.82,0.56,-1.66,1643.37
22.94,84.35,343.91,1.13,-8.93,9.6,671.98
34.75,55.06,346.25,-0.89,9.84,8.35,901.59
34.2,72.63,206.35,7.81,-1.52,1.64,1953.17
25.2,55.68,238.28,1.17,8.55,-6.47,1654.95
33.02,78.19,162.6,8.47,4.49,1.14,431.32
31.96,86.2,324.67,0.21,-4.2,5.84,560.46
38.48,67.38,263.71,-4.15,-5.56,-9.24,166.96
39.05,69.52,227.02,-2.89,9.91,-1.32,1355.65
21.36,87.1,172.55,0.44,5.44,-9.15,633.79
31.24,70.84,339.35,0.6,-5.01,-5.12,1073.19
38.78,69.5,256.04,3.75,-8.65,-8.16,1536.28
35.09,73.13,206.59,-5.51,3.94,9.21,1672.07
45.69,77.57,220.04,3.18,-3.94,-6.62,650.73
39.76,54.28,204.14,5.57,-5.57,-7.0,474.49
24.89,82.84,270.36,3.53,4.7,9.44,1697.07
22.12,67.42,335.99,-0.36,3.59,0.32,762.54
39.27,52.89,321.34,9.83,-0.37,5.16,1644.0
20.8,81.45,242.08,-1.9,8.85,-3.45,299.53
37.57,65.08,315.3,-7.87,3.59,0.66,1823.82
48.21,54.01,234.62,6.43,7.87,-9.86,966.25
37.26,75.35,200.46,-5.76,-6.19,-1.82,340.27
31.65,85.21,346.68,4.27,-4.07,1.1,1070.14
39.3,85.51,210.78,-6.42,-7.91,0.29,1740.03
33.75,88.31,214.74,-9.66,-3.91,-1.88,778.65
36.37,84.71,347.94,-6.8,9.44,5.76,356.12
48.24,50.09,176.79,-2.46,9.26,0.03,1153.11
31.58,65.21,302.11,-7.87,5.21,2.72,1668.93
48.84,82.74,337.16,8.78,3.4,-9.76,242.71
47.16,64.65,252.36,5.29,5.62,7.23,82.82
25.87,74.06,150.5,-3.55,-9.27,-5.08,112.59
22.08,74.25,225.01,6.35,-9.93,-0.36,460.98
23.02,64.6,172.31,6.82,0.03,-2.96,14.6
20.55,86.18,233.24,-1.59,1.98,7.84,857.35
22.83,70.13,308.01,7.35,-4.69,8.01,1395.5
40.49,68.59,237.74,0.52,-5.93,-5.51,1420.92
22.14,89.9,236.39,-0.59,-4.52,5.05,1273.42
29.57,69.74,261.36,4.37,2.47,-7.94,592.4
45.35,57.14,266.34,-5.72,-7.08,-9.4,1471.88
20.7,70.52,321.26,5.79,4.41,6.73,1152.98
44.43,82.56,211.67,-1.41,-1.55,-7.38,1722.36
28.46,81.07,314.33,-7.45,-2.93,-6.9,956.01
23.54,81.54,263.19,-7.61,6.14,2.13,360.29
40.9,78.32,210.11,-6.7,0.12,6.34,1269.31
38.87,60.17,209.03,7.81,-2.43,-6.21,301.57
46.32,84.48,222.23,9.82,7.56,-7.72,1926.29
42.05,85.74,274.54,-2.86,-2.63,-8.45,1406.57
44.1,57.77,196.16,-4.16,7.18,-9.5,1512.64
28.46,55.22,334.07,-5.62,0.08,-7.67,1358.54
25.32,89.02,264.98,6.48,-5.84,8.85,195.12
42.52,84.73,334.0,-5.82,2.26,-8.09,930.6
44.21,85.73,159.28,8.48,-4.29,1.95,2723.02
49.72,85.46,218.52,3.35,-7.06,8.42,458.71
32.38,71.67,154.56,7.94,-8.27,2.56,1359.0
31.16,75.86,204.45,1.08,-5.17,-9.35,1639.77
43.29,71.81,322.4,3.81,4.73,1.93,549.86
30.22,52.05,157.32,2.39,6.76,8.06,399.21
47.92,79.82,237.23,6.62,7.23,-3.55,1766.32
45.75,70.21,173.51,6.72,-4.6,-3.73,10.39
32.87,75.91,233.37,1.8,3.22,-5.02,511.49
42.53,70.11,317.77,2.65,-5.39,0.11,813.46
42.64,69.67,274.61,8.44,2.46,-5.24,1344.52
23.09,56.87,297.35,8.6,7.74,4.48,1994.13
47.08,61.15,219.82,3.28,-9.18,2.9,741.64
35.16,56.35,338.88,-9.84,9.7,-1.98,1897.62
44.79,57.83,291.85,-7.91,6.54,4.45,733.55
29.6,88.92,234.36,7.16,5.23,-8.03,1391.06
46.87,56.12,235.29,-8.31,3.83,4.99,330.73
31.68,60.77,333.74,-5.73,5.41,2.06,920.82
20.33,73.62,265.28,-5.39,9.89,2.6,1742.55
47.16,74.41,291.28,2.0,5.4,-8.71,639.99
22.74,56.16,233.41,1.53,-2.97,2.36,210.41
29.58,81.75,194.74,-4.21,2.28,-0.12,1045.43
48.5,81.41,294.71,-5.85,-3.26,-0.28,879.07
48.52,59.49,271.56,5.29,9.4,-3.56,459.08
37.2,61.55,250.27,8.71,8.0,-9.85,1811.23
38.96,87.52,274.8,-8.94,1.35,-1.55,1203.37
33.45,83.03,191.66,-7.34,5.63,-1.98,694.35
28.8,77.91,308.79,2.84,8.19,-1.54,1992.26
29.86,53.29,339.63,6.09,-5.13,2.24,275.13
40.18,44.56,328.22,5.82,1.59,-4.0,1695.9
42.57,72.37,214.29,4.39,-0.37,-4.61,461.25
18.85,57.5,231.2,7.75,5.43,-0.04,479.01
43.69,67.93,311.68,-5.65,-2.42,1.85,996.32
22.74,74.04,269.02,-7.85,4.18,1.35,1323.88
34.83,63.1,259.58,2.31,-1.94,7.63,1380.93
21.73,81.24,335.33,6.45,-7.78,5.38,44.26
36.49,83.62,257.2,1.64,-7.86,-8.96,573.72
33.25,62.94,252.99,9.26,-7.62,1.27,1321.21
46.63,83.55,158.4,5.91,-9.35,-1.64,1779.47
30.53,54.14,163.88,4.02,0.66,-2.78,1339.78
23.51,83.51,151.48,-8.79,3.44,9.16,531.76
24.29,56.11,332.65,-7.85,-7.47,-0.86,1015.55
42.85,53.32,231.68,5.7,2.24,4.39,1295.15
38.55,75.67,243.71,-6.04,1.95,9.34,270.68
23.03,68.88,319.08,-9.42,-7.06,-6.98,1089.81
22.52,86.32,271.85,8.22,-1.92,-8.91,943.33
41.03,64.53,271.9,7.82,5.1,-3.73,673.3
22.18,61.49,209.31,-8.8,10.98,13.83,1247.08
44.66,70.03,316.78,5.6,-7.06,-7.66,1272.43
41.19,68.24,183.17,-9.04,9.92,9.83,1942.94
22.44,63.78,160.63,-4.3,4.67,9.2,856.61
22.55,77.75,188.32,2.47,-0.72,3.83,1062.53
49.6,80.38,203.55,5.26,2.6,5.06,315.01
31.23,84.12,206.46,-9.79,6.92,-7.19,1096.72
31.12,88.91,284.1,-3.48,6.85,1.9,72.17
44.38,60.67,193.56,-5.71,-3.51,-6.91,299.76
48.42,78.64,285.33,9.98,-0.17,-2.43,342.49
49.58,65.77,168.23,3.42,2.76,-3.09,1265.28
42.6,77.08,179.44,-1.89,-8.56,2.28,1134.59
31.29,69.04,251.76,-8.49,8.92,-8.41,1596.07
22.51,89.75,334.38,1.97,-1.35,-7.93,928.8
43.31,79.16,321.91,2.83,-2.58,2.2,949.71
36.75,88.1,343.75,6.33,8.14,2.72,323.11
32.73,83.4,280.1,-4.23,-7.63,-3.2,1485.4
47.19,86.12,285.16,9.63,-9.21,-7.06,7.31
23.34,82.58,275.0,8.03,-2.25,14.96,849.78
34.78,68.37,274.56,-4.08,-2.3,-8.94,376.65
20.34,60.07,179.42,-3.03,5.29,4.35,1542.02
34.06,64.81,258.75,0.39,-8.63,-7.2,1346.78
21.69,50.81,227.21,8.73,-2.32,2.75,1413.54
23.56,70.96,238.51,4.7,-5.29,3.27,297.16
23.53,70.2,254.72,1.54,4.79,6.09,2723.02
39.48,71.01,175.68,-6.74,-5.46,-2.1,1381.79
42.38,88.96,221.9,-7.01,-0.84,-9.56,5.27
37.5,86.46,162.69,0.04,6.38,6.22,635.2
48.87,56.47,345.93,4.57,8.31,-1.12,174.58
31.25,64.76,173.71,5.02,4.45,6.94,1362.79
28.57,66.96,201.7,-14.96,-5.01,11.02,424.22
46.06,64.42,328.26,-8.0,1.44,-0.03,529.32
26.71,81.94,246.54,-2.31,3.79,9.99,156.66
48.9,70.96,177.13,8.36,7.5,-0.76,967.61
20.36,72.88,226.85,0.91,7.77,3.93,2723.02
49.1,84.12,173.17,-3.6,8.62,3.4,1691.18
21.29,82.24,190.04,-3.53,6.21,0.36,52.73
46.73,55.29,160.41,-7.36,-7.06,1.71,123.28
35.83,78.56,237.65,-0.54,4.95,5.97,1280.81
49.79,67.42,311.33,5.83,6.29,1.43,1833.87
22.21,61.79,267.19,9.37,7.56,-1.0,1784.24
36.62,52.0,271.27,0.03,8.5,3.24,167.26
49.08,69.49,190.12,-6.66,0.18,-9.29,576.89
35.69,64.22,218.78,3.66,3.1,-7.82,1042.07
38.88,60.06,319.05,5.14,-9.81,-7.49,53.25
40.87,77.79,167.57,-8.57,1.46,-1.48,1057.29
33.64,80.78,321.59,7.0,-0.54,7.44,895.53
38.83,59.79,246.74,6.59,9.25,2.87,1176.82
37.53,51.98,317.43,-0.55,8.03,9.45,1840.63
47.03,83.95,213.6,1.21,5.95,-9.2,549.24
21.36,50.4,217.77,4.27,-8.86,4.44,1278.19
28.43,87.48,300.32,3.53,-1.96,-3.72,859.66
48.51,75.1,307.0,-9.67,3.92,-9.53,870.26
46.71,62.87,195.93,-7.55,-9.41,6.52,1294.54
33.67,59.86,344.57,-6.75,-5.28,-6.75,1902.67
38.6,50.36,166.9,5.11,7.75,-5.72,1726.06
28.32,59.42,163.7,-1.2,-7.4,-3.19,1279.04
25.64,55.51,269.1,0.91,-8.97,5.77,923.08
33.91,74.49,294.55,9.0,4.88,14.79,847.98
30.6,56.66,342.18,-3.18,8.93,-4.7,1574.27
37.51,71.15,230.99,4.98,6.69,-6.63,436.44
22.33,73.6,155.06,-1.15,9.5,-7.81,1175.33
49.23,61.92,270.58,-2.46,5.07,-7.0,1009.91
49.59,51.4,207.94,-3.34,-1.25,7.36,1298.71
40.94,51.49,236.59,9.3,8.93,8.45,374.84
36.08,51.05,247.69,5.44,-1.47,9.36,1391.51
29.29,79.56,162.9,-9.6,-3.0,6.69,1254.0
44.41,62.72,247.2,9.15,-1.04,7.75,360.29
40.54,81.85,235.26,5.51,6.28,6.32,899.24
24.88,67.27,292.51,-7.02,8.35,9.16,1357.24
47.33,68.12,279.13,-8.47,-2.85,6.91,1803.21
44.68,70.52,187.04,-3.84,-0.76,-0.76,244.2
48.49,78.52,191.23,2.48,7.97,-3.53,17.48
41.77,60.94,200.2,2.33,-9.06,1.68,330.31
38.4,54.86,185.79,-4.48,5.68,2.16,1978.55
32.55,72.24,281.44,-1.09,-0.92,1.5,1536.74
47.98,63.08,348.89,-5.76,-2.47,4.13,1228.74
45.98,67.7,280.42,-8.99,-1.06,3.98,266.03
21.36,75.88,497.15,0.34,-1.63,-8.26,832.09
20.79,69.77,231.99,-3.06,5.13,-4.29,1430.48
31.29,74.81,212.52,0.86,8.56,7.8,1791.77
44.32,71.77,332.21,8.93,-0.17,1.8,763.65
49.62,79.59,343.8,-7.13,6.65,-3.43,1999.38
24.51,78.24,249.36,-9.96,4.64,7.01,279.47
37.82,71.37,497.15,-8.46,-3.39,-5.02,773.87
31.43,77.16,304.02,-0.75,1.75,-1.82,1750.79
49.1,84.94,176.49,4.14,3.34,-4.47,1299.83
45.26,67.29,303.12,1.62,-9.53,7.43,1621.84
45.15,66.51,313.79,-0.1,-2.08,4.57,1815.6
34.06,80.57,174.98,-2.92,9.85,-0.8,1014.63
32.44,73.3,345.37,-3.8,2.75,8.65,469.49
28.2,52.84,347.1,-2.47,-3.32,8.55,1387.41
21.69,85.68,337.34,2.23,-5.0,4.23,1126.96
45.94,51.23,249.21,-6.64,-5.81,7.84,1545.3
44.39,79.94,199.21,5.43,-1.97,4.39,1023.43
49.99,80.35,266.4,1.51,-6.13,2.56,1622.22
49.9,88.12,233.99,-4.62,-7.3,-1.58,1804.03
36.66,52.17,191.19,0.02,-2.72,-4.53,1499.17
53.04,73.87,234.74,9.26,2.14,-8.79,1487.31
48.34,67.11,282.78,-9.59,-7.07,6.02,1174.38
45.49,63.23,164.18,-6.01,-9.11,-7.56,943.28
27.42,53.61,216.68,-1.03,-9.31,-1.79,1945.18
33.52,72.51,153.56,2.77,-4.65,-5.31,-110.99
23.87,69.16,299.9,-5.76,-6.2,-0.91,1680.71
48.62,54.18,278.14,8.63,0.79,-3.7,1010.82
38.19,74.5,162.53,2.85,-0.89,6.59,1109.72
26.86,79.52,342.95,7.55,-3.5,9.56,1325.78
40.15,80.69,154.52,-3.41,6.67,8.83,1457.1
38.54,86.21,267.99,6.58,0.1,2.45,896.71
18.85,66.38,305.27,-2.44,-8.17,9.59,712.63
23.41,88.12,307.58,-4.94,-4.08,-1.99,478.84
40.15,84.62,156.86,8.23,9.47,0.45,847.29
35.61,61.86,331.28,-8.16,9.54,-4.86,422.48
43.17,56.37,333.69,8.86,-4.91,7.96,833.52
35.6,67.42,262.28,-0.83,-6.66,-6.41,1749.32
45.57,66.08,246.42,9.85,-0.09,2.21,1954.14
36.56,73.03,158.97,0.79,-0.37,5.99,1154.2
36.83,73.34,262.39,5.15,-1.8,1.91,292.01
46.3,80.0,231.88,-9.86,0.59,-8.42,855.11
32.1,70.4,304.56,-0.07,-5.36,2.23,1204.15
24.02,54.19,230.78,4.75,-7.7,5.34,2723.02
20.86,84.33,286.72,5.66,1.41,-6.24,410.31
42.65,62.39,170.28,-6.84,8.65,4.74,453.65
38.61,88.85,176.59,-1.62,-7.25,7.57,947.86
41.12,54.71,177.94,-1.62,4.1,9.73,432.86
26.39,88.33,159.11,-7.93,-1.24,-1.8,499.05
24.09,53.64,258.27,-1.14,-4.12,-9.5,1746.17
20.44,59.24,308.79,6.14,7.06,-1.62,1558.12
30.52,51.86,272.08,-4.0,-0.87,3.2,110.63
37.7,78.2,264.99,-1.35,1.67,7.83,640.35
31.77,84.01,286.12,9.22,-1.14,8.76,1063.87
33.12,67.36,217.93,-9.37,-8.38,8.19,121.22
47.12,87.14,222.39,1.83,1.9,3.16,1366.34
30.45,73.61,212.85,4.87,-1.62,3.65,768.89
35.42,75.2,292.42,5.22,-8.26,-9.95,794.36
43.51,83.82,182.33,4.32,1.92,-2.73,530.65
31.9,61.87,152.61,4.53,-9.8,8.14,667.86
38.66,64.17,269.24,-8.82,-5.83,3.79,1723.38
45.87,86.24,338.48,0.68,5.62,-0.64,1577.21
48.49,86.04,271.88,5.66,-9.24,-7.91,1871.54
24.41,89.06,306.58,3.53,3.23,7.5,1397.99
47.8,86.07,284.56,-9.76,8.99,1.1,1155.74
34.76,55.09,249.49,6.29,-6.58,7.95,518.51
27.75,82.95,293.68,4.25,-1.66,-8.08,1333.71
33.77,66.39,314.82,-1.76,1.51,-6.92,1812.32
49.4,89.63,194.95,8.81,-0.99,3.1,138.33
34.78,68.89,217.23,5.33,2.41,-4.12,886.14
29.86,72.15,194.75,9.36,-1.92,-6.61,298.72
39.0,71.19,240.43,8.59,-7.03,-6.43,1621.23
27.2,62.87,327.01,-0.37,-8.22,-0.15,1228.2
22.28,53.0,219.04,5.09,4.89,1.67,1759.3
23.87,85.83,224.89,3.38,-5.23,8.09,126.2
23.84,82.11,322.07,6.23,6.95,0.6,1811.46
24.56,55.58,253.07,5.75,4.86,3.83,134.39
24.16,81.07,257.09,-6.94,-9.01,-6.39,575.21
39.23,75.03,322.16,-5.33,-5.98,4.27,312.33
25.46,66.37,248.11,-4.69,-4.16,2.97,290.77
30.37,60.16,75.22,6.37,1.89,-5.68,343.34
46.9,84.39,167.13,6.21,6.2,3.39,960.44
34.22,78.01,185.73,-0.09,-8.79,-5.77,1568.72
40.03,71.91,230.88,1.62,-5.01,1.87,1796.55
25.17,74.38,248.97,6.54,-2.48,3.38,1133.75
25.77,53.64,343.15,-3.75,-6.33,3.87,315.5
21.23,68.96,344.13,-9.0,0.91,8.19,158.38
25.07,57.75,320.24,-0.35,-0.44,8.96,988.26
18.85,58.34,213.12,8.27,-3.67,6.2,1530.76
25.31,76.45,342.81,5.81,0.34,7.57,1240.32
22.66,86.45,287.87,-2.67,-2.88,-9.61,1165.56
23.62,66.15,228.59,-8.7,-3.14,-2.75,96.31
33.82,58.31,290.33,2.74,-4.69,-9.21,823.09
26.19,75.95,153.3,6.69,0.81,-5.5,1100.77
30.93,84.85,179.23,3.3,-1.12,-2.37,1196.58
35.1,79.93,315.94,-1.5,-6.07,7.35,9.62
40.71,84.75,279.11,-7.53,-9.74,0.24,399.11
21.18,71.46,222.84,8.22,-6.98,2.98,1899.57
43.98,80.08,250.13,-4.48,-9.14,-2.74,1017.29
38.84,55.6,331.03,-5.51,-1.37,2.06,1407.28
22.45,63.93,276.32,6.32,-5.5,6.31,616.37
46.21,65.58,229.63,9.62,-1.59,-3.98,1170.74
47.63,70.45,174.07,3.2,-3.41,8.65,712.93
21.83,87.16,208.75,2.5,0.76,-5.73,593.92
28.31,84.97,345.67,-3.61,4.48,8.39,822.8
44.19,55.38,237.47,-9.59,-0.41,-9.43,919.66
42.45,56.91,244.37,-6.16,-8.76,0.86,662.3
25.54,64.31,249.72,1.69,-9.65,9.7,515.98
26.28,61.63,326.82,-6.97,-5.74,2.2,1247.64
31.11,74.59,270.79,7.68,-1.5,1.1,761.46
34.54,86.11,288.74,-6.24,-9.1,3.65,403.65
38.55,88.49,227.88,0.44,-3.45,-4.21,1516.74
31.07,76.14,155.82,0.24,7.74,-8.92,1447.48
33.88,83.53,336.19,2.08,-8.2,-4.98,1773.63
42.42,71.01,339.83,-3.45,8.97,-6.48,1110.04
21.1,58.33,339.83,7.47,7.13,8.47,558.87
27.57,70.99,338.74,-1.11,6.64,7.05,1727.42
41.4,72.2,313.05,4.0,7.27,-3.65,560.6
46.86,79.7,286.92,2.72,-8.4,6.72,1311.2
35.35,58.8,318.9,-7.66,-6.98,-5.76,380.79
35.96,64.73,270.11,2.45,-7.31,-6.01,1258.35
23.22,64.56,176.87,1.01,-7.78,5.35,1681.71
33.42,88.38,228.24,7.97,-3.45,-3.46,1079.89
35.98,67.76,344.26,-19.12,-13.59,14.69,941.78
27.27,80.2,220.23,-6.98,-4.96,4.4,1986.95
28.08,80.03,323.57,-8.37,-5.12,9.79,44.9
31.32,60.62,168.64,-4.11,3.52,1.32,663.46
20.6,72.87,216.84,9.73,-8.06,-4.73,1837.2
29.66,85.77,220.19,-9.57,-2.79,-2.54,1285.29
26.34,69.01,160.32,3.46,-4.09,2.97,1084.19
29.82,87.8,173.82,2.17,6.95,4.03,1275.38
23.59,58.58,188.63,2.93,0.29,7.73,643.88
46.72,52.97,317.56,-5.63,2.93,8.18,142.34
37.81,85.66,162.68,-5.47,-7.42,7.23,550.3
40.37,83.91,209.74,-1.39,8.58,2.97,672.99
43.68,89.7,152.04,11.19,15.01,2.87,959.73
34.95,77.18,289.13,-8.51,4.14,3.59,787.79
22.61,87.47,274.06,-8.23,9.09,3.33,1042.0
36.11,83.08,279.0,1.46,0.17,-5.64,392.16
37.61,83.78,224.88,-2.05,0.15,0.15,368.1
42.36,72.77,191.65,-4.13,-7.66,-5.84,703.42
32.95,65.29,294.06,-3.68,-2.19,7.98,-110.99
18.85,87.38,312.22,-5.85,7.05,-3.54,683.46
28.51,67.28,177.72,-1.77,-7.3,6.11,1153.12
30.89,71.55,247.37,-5.94,8.35,-2.46,620.01
39.38,67.84,199.74,3.96,3.35,5.27,354.34
37.12,72.59,183.62,-7.52,-1.58,-5.58,1725.66
30.68,68.82,296.87,8.96,0.93,5.27,401.2
49.6,51.92,257.62,-8.2,-6.99,-6.41,1933.28
38.17,85.28,193.24,8.87,-5.65,-0.18,1974.81
27.12,67.78,212.0,6.67,-4.27,-7.73,1393.61
23.05,73.56,343.33,3.61,-2.3,0.56,1004.0
24.59,55.57,319.74,8.25,8.31,6.41,1590.84
27.38,50.14,325.99,-7.22,-2.65,5.11,1746.41
24.82,95.86,242.0,-6.47,0.48,-8.99,1419.18
25.6,78.18,274.76,-4.96,-6.76,-0.16,204.09
28.55,53.97,225.35,-5.1,4.72,7.04,5.98
25.2,86.36,165.54,-3.78,1.21,3.0,383.8
46.9,58.6,230.21,1.51,-1.2,-8.82,377.06
22.41,58.18,268.8,-9.44,8.94,-3.49,365.03
35.74,57.26,207.43,-2.35,7.81,1.13,1019.54
32.31,50.56,497.15,-5.07,3.19,-6.55,1040.17
49.47,80.87,180.22,2.13,8.44,3.64,1446.04
23.36,85.0,223.43,9.7,1.3,2.7,402.94
31.94,74.57,174.98,0.35,6.54,-5.95,185.32
49.08,57.53,230.97,-1.49,-1.81,1.01,1332.18
45.97,61.41,157.93,-2.64,-8.27,6.23,967.99
44.51,69.04,204.51,5.7,9.88,-2.5,1332.64
27.74,88.17,230.15,-8.56,-6.69,-5.06,761.48
25.13,59.89,245.63,9.2,-4.97,4.02,1501.59
40.06,79.27,258.74,-1.64,-6.74,-8.58,1365.2
18.85,67.58,205.0,-3.73,-3.25,6.65,1300.68
36.7,61.91,254.61,9.48,-4.21,8.87,55.14
37.15,68.24,251.8,8.72,2.02,9.3,1716.25
28.4,52.85,213.24,2.84,9.93,-1.35,753.21
43.08,81.95,316.04,-9.63,-8.95,2.46,271.23
25.61,59.73,259.13,4.97,5.57,7.15,1511.18
29.71,79.02,216.45,-3.29,-7.44,-5.53,972.95
32.76,52.73,339.47,-2.23,-9.6,-9.45,64.01
35.23,88.2,319.02,-6.83,2.77,-2.31,1563.74
27.27,57.72,346.52,0.47,7.47,7.69,870.07
23.45,85.31,288.45,4.89,-6.47,0.1,1509.85
38.32,82.38,225.64,-4.54,-3.17,0.6,1511.18
28.66,88.71,206.17,8.77,-6.62,3.83,199.87
37.44,69.12,282.66,-6.11,8.13,1.49,1226.45
24.63,79.1,346.16,-8.67,-4.59,-8.91,720.27
34.43,44.56,275.34,2.89,-1.11,1.22,1092.8
35.98,57.37,326.32,6.99,7.89,2.96,177.09
21.55,67.72,215.82,9.06,1.06,2.83,1176.37
30.1,56.63,231.39,5.34,8.66,4.57,1555.08
24.03,89.28,331.26,-6.01,8.53,0.4,1973.63
21.9,53.85,301.37,9.55,-0.77,8.0,640.56
49.7,73.57,346.28,8.39,1.65,-0.71,310.25
29.67,75.06,304.95,-6.74,-5.39,0.36,731.8
44.3,71.52,239.7,1.18,9.81,5.61,38.6
27.64,76.49,256.21,1.11,-4.43,6.66,817.55
40.45,54.65,330.1,-1.15,5.67,2.97,1829.18
42.81,72.2,260.33,9.69,-3.74,-7.47,388.7
37.87,61.49,201.08,-8.81,-3.74,-3.36,955.44
34.15,87.61,237.12,2.54,-7.92,-9.6,1145.23
32.36,80.48,253.26,-5.89,1.2,-4.09,359.81
30.47,88.9,169.34,0.55,-5.1,1.4,660.21
47.89,51.5,298.75,5.59,-7.03,6.1,1822.72
44.92,61.41,171.87,-5.07,-5.47,1.71,591.46
48.95,57.82,230.98,-2.13,-4.98,-9.2,1270.73
23.73,50.45,310.92,9.02,0.08,-4.82,273.9
41.93,59.69,243.51,5.23,-2.28,1.56,1339.73
48.15,77.15,318.4,1.45,-8.49,4.18,558.29
25.44,59.24,218.38,-5.56,0.72,7.33,462.53
21.99,70.36,341.53,-1.49,5.75,9.35,248.33
42.23,85.51,191.89,5.48,1.48,7.84,93.65
37.23,77.75,157.65,6.41,9.49,-0.65,1935.72
45.25,65.79,324.49,-5.11,-8.02,4.94,827.81
24.19,64.9,300.44,3.24,6.42,-5.19,1555.23
43.86,68.23,196.4,-8.1,0.11,-8.72,1840.18
26.05,57.08,346.95,-9.54,0.43,-8.9,408.04
24.91,75.36,250.46,0.97,0.38,-5.17,1739.7
24.93,64.57,340.21,-5.51,-3.49,-9.25,1416.05
44.44,84.09,251.01,-8.42,-3.51,7.01,1155.95
39.96,80.26,244.37,4.6,2.64,-0.2,1618.16
35.69,74.42,239.83,-0.04,-9.1,6.22,221.33
30.76,64.57,216.98,5.93,1.78,8.8,527.2
46.32,58.4,256.74,3.28,4.49,9.88,262.1
31.77,81.05,240.51,4.6,-2.87,8.74,1791.94
44.5,69.46,157.35,-3.85,-5.65,4.33,197.6
33.17,58.99,202.09,-4.73,-5.73,-1.16,1959.9
31.31,57.81,192.62,2.02,-8.36,1.96,219.78
33.88,56.62,323.49,-6.0,-8.21,6.33,1323.64
29.04,81.09,269.77,6.31,-6.67,7.95,1320.99
42.43,59.16,302.74,0.46,-9.62,9.13,1862.49
35.08,71.07,341.37,-5.46,-4.68,4.61,646.27
26.97,68.06,278.81,2.5,-3.87,0.8,664.02
46.99,73.18,346.52,8.9,9.9,9.37,1692.59
31.52,85.09,212.35,-8.36,9.83,9.17,1957.15
36.31,84.71,187.25,-7.81,-6.26,-0.45,60.28
47.19,68.04,230.66,6.88,-5.74,2.97,1270.63
38.73,50.61,244.16,-7.81,-0.16,6.19,487.28
23.51,67.06,329.07,-9.21,-7.02,-1.34,1455.92
48.19,74.25,261.99,-3.04,0.08,6.59,1545.44
38.83,72.31,208.44,-0.67,-2.01,-7.77,1525.05
30.05,76.05,298.53,1.39,-3.51,-0.38,871.02
24.18,56.16,251.17,0.15,6.45,-0.35,315.6
43.82,75.86,182.43,8.26,6.56,3.69,1169.53
38.6,57.31,265.36,5.37,9.76,-7.67,1578.08
36.0,80.02,332.28,9.68,-5.54,-7.94,1824.39
46.82,63.56,318.52,-0.47,7.77,8.01,905.29
43.66,78.4,267.36,-8.31,0.76,-3.93,491.35
24.55,51.91,225.42,9.11,1.83,-3.46,237.64
29.35,66.31,167.4,-9.92,7.93,5.54,1595.2
27.45,78.2,243.93,5.52,8.85,-1.7,1070.59
42.32,59.07,300.42,-9.37,4.54,6.66,1348.37
21.01,81.81,222.05,5.22,-3.04,-1.97,318.48
37.1,75.23,197.09,8.76,-0.21,5.21,13.16
42.87,73.5,336.28,-2.21,2.3,0.51,1935.16
46.3,64.14,314.31,-5.18,6.57,8.72,1621.78
30.26,69.3,277.66,-5.47,3.16,-3.45,800.05
44.64,73.89,177.36,-0.17,-2.69,-2.75,914.3
23.32,68.9,178.98,-6.58,-1.64,9.4,1858.13
45.39,77.93,170.64,3.46,-8.99,4.75,415.3
23.82,67.35,273.26,-2.63,8.49,5.45,1605.66
31.92,58.09,173.11,-3.54,-8.24,-4.08,35.86
43.92,58.56,318.53,-0.77,1.6,0.64,1751.43
24.5,50.23,348.59,0.85,7.43,-3.73,1178.57
26.88,62.04,223.27,-7.16,-1.58,-4.8,955.16
41.67,79.96,240.73,4.16,6.0,0.7,1412.92
41.6,81.77,292.33,7.66,6.08,9.76,135.3
39.23,58.1,337.43,-4.44,-8.8,-5.71,391.09
40.82,88.36,328.82,-6.39,-1.76,-5.15,813.97
36.28,44.56,161.52,5.21,3.82,-5.14,1235.73
27.55,86.68,183.81,-6.33,-1.55,5.83,289.1
30.37,78.27,300.92,-9.17,0.9,0.21,758.98
25.45,78.9,287.78,2.38,1.89,-2.3,521.79
47.25,53.4,176.64,-5.2,-6.98,6.88,1291.14
37.5,58.8,250.41,-6.56,-1.76,-4.05,1838.56
32.03,50.35,306.16,9.63,-9.43,-2.16,331.96
33.86,78.65,193.76,-4.16,-7.01,-8.53,378.52
48.42,63.78,324.26,8.07,0.25,-7.62,1201.06
24.6,81.47,160.59,-6.44,1.47,-7.27,907.13
37.59,63.56,306.44,6.38,-7.08,-3.06,1436.21
35.18,82.77,273.16,0.04,5.11,0.48,575.77
38.34,55.23,213.04,-8.43,-2.54,-9.99,1089.64
20.54,56.93,294.19,4.67,8.41,-6.2,773.66
46.16,63.64,306.47,7.84,-2.25,-6.49,562.53
47.96,66.34,336.78,-6.74,-7.0,-4.93,1458.59
18.85,63.95,223.55,4.51,5.16,-6.68,1591.79
40.9,80.55,287.2,-1.1,1.36,-6.1,657.9
47.67,53.88,270.52,5.08,-2.27,9.68,1245.94
41.22,64.05,497.15,4.28,-2.88,1.89,357.18
24.58,83.49,328.08,-9.47,-6.98,5.25,1581.94
37.29,52.67,150.63,-6.43,-3.18,6.39,562.5
38.2,87.69,206.42,-0.58,-9.41,3.35,341.91
32.72,89.45,257.66,8.67,0.05,4.08,1879.92
42.09,53.54,185.66,-3.16,7.93,2.65,844.97
48.03,61.65,331.57,2.58,5.91,2.99,1287.0
47.77,64.9,279.52,-9.76,-9.43,8.57,1618.43
33.53,81.06,245.58,4.22,7.63,-6.29,1372.28
23.4,73.84,312.94,2.06,-0.95,-4.51,1129.32
49.55,75.77,240.18,4.31,-6.18,-8.13,743.23
45.17,80.3,261.73,8.09,5.05,6.75,1837.05
23.74,54.72,150.55,-7.07,-3.54,-1.02,267.08
47.63,83.33,223.14,-4.77,-4.93,8.14,1767.84
46.1,78.22,177.76,9.92,-6.77,-1.77,1419.7
35.57,73.09,287.94,-6.87,-0.27,-1.15,1142.82
37.74,85.59,245.81,-1.95,13.96,13.63,649.5
31.97,78.01,210.35,4.5,5.71,2.25,292.09
21.64,58.07,243.57,3.66,-0.59,5.32,886.32
30.06,67.19,191.93,-5.45,-1.06,-2.97,1567.52
44.09,69.76,335.02,-5.7,-9.96,2.6,-110.99
20.14,52.21,160.79,3.33,6.36,-5.92,1290.88
30.0,88.19,323.08,-6.27,-0.14,1.08,1985.0
31.95,55.14,252.27,3.23,-1.2,0.93,1945.27
36.12,95.86,273.79,-0.15,5.23,7.77,800.01
47.6,70.25,210.52,-2.27,-8.74,7.92,385.07
30.39,51.03,343.34,-4.0,-2.67,-0.26,927.68
30.41,86.99,206.37,8.95,1.51,-9.51,1689.15
42.13,84.07,267.78,0.16,-0.79,6.89,917.13
33.57,70.97,348.68,1.23,-6.37,-9.99,671.96
26.74,59.16,326.22,8.99,-4.01,-0.43,1482.46
33.57,54.86,257.27,3.08,-4.0,-9.6,1300.27
24.23,64.54,348.07,9.16,9.84,-2.95,1937.4
25.29,60.22,290.27,-7.87,-3.48,2.74,1098.52
34.95,70.27,191.74,6.93,-5.9,-2.58,1934.94
32.57,88.66,231.12,-3.29,6.45,8.54,581.87
47.45,73.0,216.9,6.21,-1.58,2.82,1729.65
30.87,85.6,218.8,7.11,-1.12,2.93,701.85
37.42,76.04,302.09,-4.57,0.98,-2.51,1619.35
38.97,69.01,266.85,-1.82,1.91,-9.23,1851.97
20.39,84.18,157.62,4.52,1.81,4.76,1246.38
39.91,68.85,325.49,-8.02,-9.31,4.32,1457.1
25.34,84.75,209.36,5.11,6.38,0.6,1917.28
48.83,61.66,349.41,-7.79,-6.1,-1.67,750.31
24.46,55.15,340.84,8.29,-4.15,0.77,1023.17
32.44,84.21,338.11,-4.47,-6.53,4.94,1796.58
22.56,73.5,312.23,1.51,5.34,4.26,1345.63
49.91,85.56,194.12,-7.66,1.67,3.16,1747.18
35.07,87.51,256.53,-4.61,5.11,8.08,1236.51
37.86,52.15,194.86,-1.92,3.07,2.2,1479.46
22.01,70.04,201.94,-0.26,-7.92,-9.71,26.12
42.5,65.0,272.19,-10.0,-3.97,2.36,679.35
26.3,75.03,158.17,7.77,0.15,2.25,1540.84
46.94,81.74,343.89,-9.85,-3.9,-8.61,808.02
26.15,61.22,333.73,5.47,-5.85,-1.45,725.69
25.72,72.27,226.15,-0.59,7.4,3.02,1903.1
21.1,78.35,253.08,0.48,4.96,4.09,1105.1
34.16,55.38,243.22,-5.83,-3.1,7.86,384.98
36.95,82.56,326.44,2.15,5.3,6.83,944.45
21.97,74.24,287.72,0.74,2.55,-7.67,1037.34
43.27,87.98,205.62,-6.72,-9.92,2.18,1977.46
33.6,63.58,239.37,-5.24,-2.39,1.93,1436.44
35.73,54.33,235.79,-8.66,-4.19,-3.93,1038.8
33.22,70.26,341.87,-8.67,-5.64,-6.32,863.98
32.02,53.43,185.06,-9.72,-4.97,-6.01,1830.99
36.79,88.78,167.92,-5.59,8.85,-6.45,1291.88
24.66,51.55,326.12,3.59,-0.27,6.13,712.17
25.46,80.14,329.34,-3.68,6.95,-7.03,929.26
45.85,71.0,324.35,-3.15,-5.72,-4.71,556.25
48.38,64.74,252.2,-7.36,-6.51,-5.64,1920.86
31.2,52.63,281.95,1.51,7.78,4.26,1403.89
28.12,74.89,262.67,-3.16,-0.09,-6.83,784.6
39.32,73.41,163.89,3.53,7.9,-9.52,366.43
32.26,61.24,269.17,4.83,-8.74,-2.52,354.04
20.76,86.41,152.72,1.69,8.33,-3.9,2723.02
24.68,62.16,215.0,-4.48,-1.69,-2.05,935.13
41.48,67.99,336.46,0.17,-6.89,5.08,835.58
39.77,71.75,210.81,-4.96,3.67,-9.75,1703.61
20.81,54.01,337.97,8.06,5.94,-9.25,1958.37
26.66,87.29,200.03,5.33,-9.05,-4.89,709.65
26.93,64.98,212.91,-0.14,9.74,7.78,589.22
40.16,53.23,275.68,9.31,3.94,-6.62,1540.22
20.59,65.49,302.33,0.94,-3.57,9.94,899.59
23.12,74.01,250.28,-13.7,-18.84,-18.11,435.14
44.0,70.55,326.42,-8.09,-2.15,-0.88,361.88
25.36,77.78,158.05,0.87,-5.59,4.96,561.14
39.58,52.22,334.44,7.21,-0.12,0.38,2.65
27.15,61.38,189.26,7.33,5.64,1.32,1882.86
22.98,82.77,326.85,2.09,3.2,1.62,860.5
27.3,53.2,75.22,-2.13,-1.28,2.97,165.69
41.67,84.22,316.55,3.01,-7.62,-8.78,329.91
45.67,53.68,284.33,5.24,9.14,2.33,646.68
44.91,83.38,185.19,-1.77,-4.59,4.34,1103.39
31.92,64.43,333.61,-0.47,-4.44,-3.79,1407.43
40.04,74.49,199.1,3.61,2.91,9.57,615.7
26.15,56.12,198.83,7.53,5.41,-7.11,1915.23
28.79,52.65,312.84,5.82,9.68,8.21,1520.62
46.89,58.64,171.17,-9.55,9.38,3.53,1651.6
20.39,55.11,194.41,-7.51,8.28,3.29,647.29
22.57,62.5,250.74,7.06,-1.29,7.52,761.92
26.24,70.58,316.1,6.68,-6.67,6.63,1076.12
20.8,73.55,179.5,-2.22,1.69,-3.09,903.39
25.44,81.59,259.53,1.69,-9.65,4.11,519.78
37.49,76.25,292.25,8.12,-6.08,-8.99,1994.54
32.64,74.35,322.12,8.23,-9.95,-0.72,1696.72
46.78,66.47,337.11,5.66,-6.39,8.76,475.97
44.52,68.95,306.93,-5.81,-0.5,-4.52,1784.8
30.25,66.58,280.57,4.61,-2.13,-9.0,1173.77
27.78,83.69,236.72,-7.98,-2.61,1.66,25.12
31.39,59.2,172.42,7.88,6.62,-2.9,692.3
37.71,50.23,291.95,-7.02,3.5,-2.41,51.47
28.04,76.05,348.55,3.25,8.73,1.65,175.54
38.72,58.1,297.35,2.2,-1.09,2.43,357.95
32.28,85.6,153.34,5.54,-4.56,-1.25,968.8
36.56,84.36,249.25,1.03,-7.55,0.15,762.58
33.08,53.07,272.93,-8.81,3.44,9.87,297.99
28.83,54.26,287.93,4.12,6.83,9.14,789.11
48.45,69.81,293.95,-2.34,-6.33,4.15,608.68
42.91,74.37,497.15,-3.59,7.58,-6.77,820.31
24.2,61.0,194.67,9.83,0.53,-2.8,344.62
46.05,78.67,338.44,1.81,-7.12,7.66,1219.42
34.62,73.8,289.33,4.21,2.86,-1.53,89.06
46.84,62.99,197.37,0.53,0.4,9.11,775.75
44.0,51.01,214.46,5.4,-9.44,-0.23,1789.77
32.76,80.01,334.39,5.04,-2.02,7.24,839.34
20.67,58.59,327.5,3.14,5.7,-9.29,882.16
28.06,83.38,231.03,9.95,1.11,-1.32,136.02
36.25,66.81,157.66,-0.8,-4.36,4.01,1210.73
39.0,73.08,159.7,4.12,8.57,7.27,1872.81
27.74,84.92,206.78,5.96,-5.24,2.19,583.22
24.18,84.54,275.82,-2.48,-4.95,-6.53,786.5
45.05,64.86,266.84,-0.86,-2.91,7.72,1176.32
49.53,58.36,276.77,9.38,7.89,1.5,186.42
35.77,81.01,293.46,-9.35,0.15,-7.84,1900.57
25.15,67.32,153.81,-3.29,3.64,-0.72,935.19
28.17,57.68,171.02,-0.28,9.53,3.98,230.19
20.55,86.18,221.9,-9.97,5.67,-0.98,670.45
47.43,57.92,180.97,7.98,-6.55,7.42,747.66
23.53,51.03,165.06,-4.28,5.77,-1.53,690.76
37.3,50.81,278.19,-4.85,4.97,1.67,1386.45
28.22,74.89,313.07,6.41,-5.35,-5.78,691.04
36.63,76.47,300.53,-4.44,-3.49,0.25,647.71
39.54,62.44,313.41,3.15,4.2,-5.54,644.18
44.89,62.8,283.17,6.43,-5.23,-5.5,1555.7
26.19,63.58,297.07,5.85,-5.84,-4.4,616.76
20.33,77.21,204.36,5.64,4.07,-9.12,28.0
24.11,52.33,348.6,-8.23,7.61,-6.73,731.07
47.0,87.16,186.63,-8.4,-8.5,-1.51,556.47
46.22,58.9,192.9,-3.86,-1.08,-7.38,1818.03
37.92,89.99,75.22,-9.28,2.14,-7.33,955.81
38.02,56.86,345.07,0.01,3.53,9.36,469.15
39.95,80.86,347.66,-2.1,9.92,-1.46,1963.17
25.26,58.94,308.98,1.14,3.65,-1.93,493.49
47.43,53.23,275.81,-4.02,2.4,-4.65,1526.05
32.56,85.0,254.01,-0.28,9.79,0.25,1299.1
31.49,84.35,344.12,-3.31,-8.79,1.92,924.46
35.57,66.14,289.12,-6.1,-8.51,-1.64,811.67
21.41,78.1,338.95,2.99,1.21,-2.12,1744.76
24.99,72.28,213.31,3.47,-2.83,4.01,950.16
42.14,84.12,216.75,6.58,-8.07,9.0,2723.02
22.48,62.6,75.22,7.5,-3.87,7.56,708.5
38.09,70.95,179.97,4.09,3.49,-7.63,551.74
27.36,69.41,339.19,3.75,7.61,3.05,817.93
31.68,64.16,251.49,-8.87,-8.11,-9.86,239.84
28.66,85.66,335.28,-7.8,0.8,2.66,130.25
30.67,56.64,497.15,6.25,-4.08,-0.71,1082.94
41.57,55.98,293.19,-5.34,3.35,-0.18,908.52
28.91,73.08,246.58,-2.89,0.99,1.76,346.78
36.99,76.3,275.36,-7.09,8.53,4.85,213.6
34.28,57.78,250.87,-6.1,-9.25,4.59,286.53
39.91,65.63,343.42,5.51,-0.6,-9.11,630.49
48.1,87.86,288.42,-4.76,-6.14,4.73,902.97
41.98,59.86,200.26,-1.02,0.74,6.6,386.7
26.45,76.73,331.94,-6.97,7.07,-8.64,1511.25
20.94,79.61,208.81,3.56,8.23,-3.54,386.65
27.87,67.93,224.32,4.57,-2.04,5.84,248.25
37.85,87.5,170.42,-2.77,6.24,-0.14,1989.11
21.54,79.47,329.99,5.69,-4.39,3.9,895.42
34.89,68.32,207.22,-5.2,-9.87,0.05,340.01
37.91,72.77,201.78,3.84,7.1,9.56,1789.11
30.03,77.7,334.05,4.6,-7.61,8.72,462.18
43.13,73.69,311.11,9.37,-9.65,-4.38,1851.16
23.2,85.15,178.22,-5.35,-2.92,-2.28,237.92
22.25,64.28,303.86,-8.13,-2.41,-1.37,1683.63
41.85,62.0,332.61,-4.74,-8.46,-7.92,368.53
34.86,58.55,165.7,-7.54,6.28,-1.92,1876.68
40.65,51.51,315.04,-6.61,-1.89,5.5,1148.49
33.04,51.72,259.48,-3.32,-0.2,6.94,379.83
27.39,84.8,283.84,-1.72,-4.71,7.72,1689.64
44.57,77.14,248.57,8.07,0.23,-9.71,781.15
43.98,76.42,289.56,-6.09,5.33,5.78,1465.63
40.84,74.59,156.82,9.44,8.12,0.05,1286.88
28.16,83.97,302.54,6.2,9.41,-5.88,1428.59
37.71,69.21,156.67,7.63,-1.47,-0.03,687.43
30.83,84.82,241.06,8.59,9.8,6.89,1877.65
22.75,64.38,180.19,5.06,-4.1,-1.32,1119.63
47.52,87.07,314.71,5.78,-9.86,9.81,155.12
24.1,77.95,212.73,-1.24,5.35,2.33,133.47
48.51,60.29,240.82,0.21,-6.43,-0.2,1476.46
33.38,72.56,235.75,8.65,-8.95,-4.1,1699.95
25.55,71.32,304.5,-2.43,8.48,-9.78,1390.56
36.26,55.52,246.23,-9.16,5.84,2.21,554.99
46.19,73.65,307.79,5.26,-7.95,1.55,451.81
41.97,62.59,164.7,1.46,5.54,0.34,1130.87
44.2,52.09,188.32,6.3,6.88,0.75,393.56
39.76,87.95,260.31,-8.49,8.11,6.87,758.2
40.77,75.66,339.42,2.42,0.87,-3.66,1257.38
45.48,85.08,164.95,-5.05,4.07,1.01,569.82
27.49,77.04,158.62,8.07,5.24,3.6,750.88
34.68,64.28,181.31,-7.8,3.77,-5.8,721.04
26.64,70.51,278.23,6.86,2.94,8.5,921.05
49.63,77.03,229.8,-8.23,0.95,4.74,1348.72
48.32,88.41,315.11,-9.5,-0.42,-8.93,1564.7
21.18,60.15,164.39,-5.3,9.92,7.3,1330.16
41.17,85.0,189.28,-3.34,-3.25,8.6,52.34
47.76,86.96,210.01,2.53,-8.23,5.87,1793.68
25.42,76.82,275.35,-7.37,5.3,-1.48,1162.38
37.04,87.25,287.03,-1.25,-5.72,9.89,1840.49
47.46,65.92,174.84,-5.91,0.65,-7.51,1927.74
21.02,88.12,338.76,7.11,-8.08,0.73,935.69
40.92,78.11,218.21,-9.1,2.39,-6.59,1832.73
28.92,51.68,292.63,-2.88,8.88,-1.21,730.77
47.73,86.27,254.84,2.63,4.45,8.55,520.76
49.13,69.38,194.55,9.45,4.28,13.18,147.26
48.33,68.41,319.25,7.36,9.42,5.64,903.66
53.04,72.66,313.65,7.9,-3.86,-2.92,1377.37
45.86,55.98,229.21,-8.74,-1.27,8.69,1953.67
45.34,68.77,267.72,6.82,-0.04,-2.63,1042.62
29.57,83.25,201.57,5.6,9.81,-9.2,1468.95
44.87,50.62,287.97,8.05,-8.62,2.76,1792.29
21.11,60.92,211.81,-3.77,3.93,-2.75,1086.37
37.89,50.1,318.82,8.24,-2.76,-6.93,333.53
26.9,66.63,193.48,-1.95,-8.43,8.69,1696.42
23.62,79.13,152.96,2.68,8.7,2.74,1148.35
22.31,81.95,203.7,-1.52,1.8,8.81,1517.02
40.89,87.81,188.21,-1.45,5.07,1.66,1316.96
30.2,74.34,251.66,0.93,-5.19,-8.72,122.08
41.74,60.19,190.74,-2.88,5.23,-9.4,338.23
21.96,86.97,302.64,5.85,6.57,8.01,572.5
29.46,81.01,198.27,-10.73,7.17,-12.22,569.42
36.18,72.98,291.39,3.8,1.44,2.3,1678.4
43.72,77.83,265.69,19.14,18.01,-17.09,1196.48
29.56,86.97,497.15,9.39,6.93,3.75,166.75
38.78,78.5,349.98,3.2,-1.1,-4.31,774.4
46.58,64.73,323.91,-6.06,3.29,-9.26,1112.66
38.48,78.52,302.0,5.01,5.68,4.62,503.01
26.99,51.61,227.29,-6.53,-9.51,-3.78,79.67
20.73,65.46,300.66,-8.73,1.77,1.02,760.53
46.1,66.25,341.34,0.55,9.69,5.48,922.38
20.64,56.67,154.68,1.07,8.94,4.06,1809.53
46.24,50.92,257.58,-6.22,6.65,-3.03,1816.73
35.87,55.34,193.6,-3.03,-7.88,4.96,1000.8
48.17,76.18,261.58,8.92,9.88,8.51,942.99
43.96,82.09,243.29,-4.3,2.19,2.2,1281.0
49.94,89.53,265.15,-6.89,-5.54,4.07,516.25
30.52,63.85,260.19,9.85,3.49,7.32,571.43
43.02,73.98,342.02,-3.95,7.13,6.87,5.12
32.06,87.49,260.44,3.61,-7.75,-2.97,156.42
34.4,56.68,319.25,-5.37,8.33,9.83,357.01
38.83,78.71,213.96,1.0,8.4,-9.43,1281.15
46.21,80.2,237.62,-2.27,-9.73,9.73,425.31
49.52,53.56,244.08,9.23,8.01,-5.08,248.16
43.05,84.45,205.75,-1.34,8.94,-1.19,1232.61
32.53,82.52,225.96,1.68,-9.25,7.67,1303.5
32.64,51.34,269.7,8.9,-4.12,-5.11,119.35
42.13,53.64,266.04,9.78,-2.54,-5.5,1545.8
27.16,51.97,277.29,-7.97,-3.02,2.86,1212.31
23.31,63.39,220.36,6.69,5.18,4.11,794.13
30.64,70.37,213.17,-2.36,-2.84,-9.85,1966.36
28.62,71.29,272.32,1.9,9.13,-0.99,20.4
28.89,60.71,176.57,-2.5,9.9,-0.22,1089.7
27.01,86.46,200.61,-1.98,-3.66,-4.56,319.41
21.26,64.73,158.43,-6.82,0.18,0.92,658.67
20.54,51.82,164.52,1.46,1.15,-6.91,266.4
49.63,62.01,198.68,0.93,1.59,-3.53,1336.43
32.83,71.24,153.91,-6.21,-2.52,4.26,803.14
31.53,66.33,199.08,0.83,-6.68,7.48,1972.6
40.39,60.95,281.0,9.46,-8.91,1.79,1307.69
53.04,55.25,162.22,4.29,-7.87,-8.5,1834.67
48.5,82.77,237.35,-0.38,8.03,3.57,481.65
43.59,89.85,75.22,8.32,-4.39,7.95,637.57
22.68,63.18,308.26,1.51,-8.46,0.09,725.36
32.53,65.26,211.09,-7.3,2.47,-0.13,2723.02
46.37,74.72,334.96,0.95,-8.49,9.83,423.35
48.34,78.74,215.93,-6.38,-8.6,2.73,1893.44
34.02,65.68,164.5,5.35,2.43,6.12,87.16
38.4,86.2,348.81,9.34,1.83,2.93,1779.72
25.01,72.4,324.0,-2.78,-9.17,-5.58,902.83
49.74,68.02,243.19,-1.3,-0.79,-4.32,1051.8
26.95,75.87,283.28,-1.57,-1.28,3.31,1994.79
48.28,88.11,284.25,-4.29,0.93,-0.88,1740.1
39.49,81.78,188.9,5.88,4.76,-1.91,1808.04
38.23,51.6,190.01,2.35,-4.34,-9.55,1171.07
35.38,63.29,243.92,-8.72,-1.34,7.69,1912.68
26.92,68.82,332.31,6.78,5.85,7.69,1375.61
25.3,62.58,152.0,-6.26,8.45,-0.78,1638.65
26.61,78.01,306.5,9.58,7.83,4.01,1441.87
25.59,83.05,161.51,-2.47,-0.45,-6.44,1561.83
43.39,79.25,245.64,2.33,0.42,0.08,1275.94
30.5,89.57,277.57,-8.44,0.58,-1.22,1452.82
21.74,60.9,287.35,-3.11,7.37,3.13,871.88
49.07,85.0,161.7,6.05,6.8,-0.61,1413.73
46.51,80.66,233.72,-0.46,-3.77,-0.03,553.62
47.83,64.49,266.77,8.09,-6.74,-4.09,1269.88
49.85,79.36,163.21,1.5,-2.42,-9.03,1047.5
25.22,54.16,177.02,8.57,-4.23,8.34,1797.08
31.89,81.57,282.73,9.65,9.02,-9.76,1346.45
42.75,71.29,254.33,-0.92,-4.68,-4.37,1193.24
40.88,61.69,182.37,1.3,-6.38,-1.05,626.15
24.62,76.23,257.05,6.7,7.99,-3.62,1725.61
44.47,75.66,332.54,-5.57,-8.27,1.04,108.32
26.73,58.38,153.12,7.23,-4.79,-0.77,1799.5
26.71,51.22,278.53,1.84,-1.22,-4.89,1305.96
36.11,67.34,497.15,4.51,1.9,-8.24,378.99
37.79,72.78,151.29,-8.4,-3.45,-7.25,1805.99
37.4,85.06,180.13,5.32,-0.08,-0.27,652.71
22.74,87.13,234.58,3.01,19.16,-11.31,336.55
46.32,71.15,310.47,6.1,1.49,-7.99,638.29
18.85,80.15,206.36,0.18,-1.84,3.54,1922.14
23.89,67.57,275.13,-4.51,6.99,5.84,1505.52
46.66,79.84,232.23,9.06,-1.69,-4.46,1833.59
48.67,58.19,196.87,5.3,-1.12,3.36,597.74
45.86,64.84,252.85,9.71,1.84,3.73,164.88
44.29,75.37,309.49,-2.71,-7.54,4.16,1125.51
39.66,50.73,316.5,2.98,-6.86,7.82,966.0
36.53,78.9,319.3,2.23,5.8,-2.03,1441.21
22.61,83.42,217.71,3.75,-4.53,-5.13,1085.35
32.25,65.97,308.69,-9.23,3.69,0.88,792.93
31.18,67.92,192.44,-4.17,-8.05,-8.75,9.37
27.79,84.05,297.69,8.19,6.44,-3.32,935.49
53.04,81.03,339.68,-1.52,9.76,7.66,241.29
34.88,61.53,152.75,9.21,-2.53,0.64,1844.0
22.43,62.96,238.07,-5.73,0.11,-1.27,1843.41
26.61,77.16,279.55,9.95,-1.15,-4.69,1607.3
40.5,72.53,290.36,3.95,7.88,-4.99,315.73
22.28,56.49,185.22,5.53,-9.8,-5.27,294.88
45.54,62.4,344.44,-2.06,3.07,6.58,1126.62
34.85,86.0,273.05,8.14,3.05,9.7,1454.92
18.85,77.53,182.87,0.91,-2.35,0.7,1809.08
37.77,89.44,154.1,3.62,-5.61,-8.4,1788.07
44.74,80.68,306.65,-8.1,-5.21,5.02,310.66
30.43,87.68,165.94,2.63,6.01,7.54,1990.95
40.34,58.65,178.21,7.58,-8.68,8.62,313.59
36.97,80.86,264.97,-6.43,1.28,2.58,1680.24
28.01,50.81,270.7,4.75,-3.86,0.14,1173.89
46.36,76.83,287.38,-9.49,-4.7,2.41,1356.57
43.92,68.77,228.7,8.52,0.11,-9.74,1207.94
39.75,63.87,304.78,9.66,7.96,3.11,1739.36
45.52,84.5,344.87,-2.92,2.36,4.19,1274.2
46.02,84.17,204.22,-7.86,5.77,4.44,1697.33
41.25,50.89,290.61,3.17,2.01,1.26,308.74
45.11,74.38,335.69,-9.4,3.95,4.0,1733.41
40.92,64.71,287.26,-0.35,-1.35,2.78,1985.91
40.4,66.63,286.22,-4.56,8.52,-7.69,1323.01
38.56,83.28,194.75,-0.53,0.04,7.97,1952.72
42.58,62.39,257.03,-9.63,1.04,2.45,439.77
24.76,87.72,262.5,-8.97,0.5,4.56,1658.57
46.43,57.19,290.03,-9.68,-3.68,-3.14,338.09
46.16,76.51,349.36,2.38,-5.38,8.38,1031.89
20.88,76.88,156.73,1.2,-8.52,0.05,1328.07
44.77,60.09,163.05,-5.34,4.36,3.58,1320.52
23.87,62.99,165.59,2.93,-4.21,9.04,1341.72
30.05,83.39,298.6,7.68,-2.22,8.32,641.85
42.31,80.47,177.27,-4.45,8.4,2.9,1947.44
24.82,63.16,274.49,6.64,1.33,-6.69,13.11
44.54,71.36,214.93,3.25,-8.06,9.01,1242.0
44.96,52.47,241.46,-9.32,5.99,9.68,1732.22
35.22,58.35,193.13,-2.5,-4.88,-7.93,1782.23
20.19,69.43,323.22,0.16,1.05,-0.99,1440.41
28.61,53.44,267.23,4.63,0.2,0.97,1149.62
38.51,83.73,338.91,-4.26,-5.24,-8.16,914.67
49.44,78.72,264.92,9.65,-7.68,-6.21,899.03
38.95,87.75,174.78,3.69,-5.77,0.75,850.2
27.79,77.74,184.17,-2.54,-8.05,9.26,1399.79
39.02,87.62,347.81,-8.06,-4.49,-9.44,1462.42
36.2,72.18,295.11,-6.37,9.95,8.25,1029.52
43.4,74.01,159.86,-0.25,-1.96,7.97,1481.62
23.21,89.08,290.76,-0.11,7.28,7.14,1056.91
42.83,75.69,232.43,5.35,0.98,-2.45,194.7
36.24,51.23,211.44,4.52,3.33,-0.18,1703.23
48.89,78.95,180.81,-5.97,-6.87,-1.93,1740.96
30.26,86.22,317.98,1.9,-4.5,8.95,532.92
38.98,81.82,162.77,-9.59,0.21,0.43,1572.87
47.96,73.35,207.97,-2.03,7.62,-8.39,1022.34
23.08,76.85,211.28,5.28,-9.14,-4.52,248.05
48.12,89.61,182.18,-2.01,0.14,-0.76,796.0
40.64,53.63,251.64,6.71,-8.98,9.07,153.1
22.04,76.69,152.34,9.52,-0.86,1.38,1572.93
29.03,61.34,210.2,2.14,2.58,3.92,392.47
41.25,75.6,336.73,-7.1,4.89,-8.23,328.78
22.02,74.3,212.11,-2.41,-7.23,7.55,417.08
37.47,56.14,222.09,-9.81,-6.67,0.78,452.26
30.38,58.27,244.63,2.05,-0.6,8.42,-110.99
38.63,74.87,262.34,6.43,9.96,-1.09,1277.2
21.37,55.13,311.74,2.6,-2.88,3.66,258.67
46.15,60.61,188.06,5.72,-1.45,-0.58,1448.84
49.2,83.41,324.35,6.0,-1.35,-7.15,698.11
49.07,63.08,301.51,7.02,-8.39,-4.56,914.95
42.49,69.52,294.53,-4.67,5.48,-8.65,249.72
23.9,87.65,167.36,7.43,-4.94,-1.19,1417.25
42.75,59.09,154.33,3.08,4.07,2.99,752.44
20.74,65.59,268.8,-4.21,-0.5,-5.13,1264.26
20.66,74.26,322.63,9.75,2.24,-0.19,854.44
29.71,80.21,497.15,9.0,-8.92,-0.82,97.74
34.66,86.07,192.65,1.49,7.8,0.67,1406.98
43.11,86.62,168.1,6.86,-5.12,-6.31,1105.02
40.5,81.07,289.92,-4.77,3.4,0.68,868.49
33.38,59.13,294.35,-1.68,5.96,-2.72,403.1
28.21,50.99,184.51,-6.32,0.8,-4.28,1248.69
49.91,65.35,155.64,0.4,-3.25,1.72,550.39
32.79,55.66,231.66,-0.08,9.56,-7.04,858.35
33.54,78.42,266.54,-5.74,-4.43,8.01,112.97
24.91,76.45,291.2,3.46,8.97,8.7,1553.49
43.84,51.76,311.99,-7.64,-6.88,3.21,180.07
40.81,83.46,272.11,-8.77,-2.22,-3.94,1781.68
26.62,59.95,172.18,-2.3,-7.23,2.52,1735.15
22.47,67.29,286.52,-1.8,-9.96,2.03,1942.18
40.41,76.72,346.84,-3.61,-4.79,-2.17,1816.88
39.64,67.18,331.12,-4.84,-8.26,-4.26,1942.82
28.2,67.65,324.33,19.54,-2.88,14.87,1774.55
48.53,52.63,210.43,-6.73,5.23,-5.65,225.02
24.53,66.06,300.16,-1.93,-9.93,3.06,875.36
32.97,80.59,320.22,8.09,-5.53,7.72,152.31
48.31,86.61,285.67,-5.51,3.4,-2.3,1090.6
32.59,66.54,200.11,3.69,-2.03,-7.56,1059.51
39.16,66.94,340.77,-7.16,6.64,-9.74,1844.36
31.93,78.11,240.16,-2.92,0.1,-1.88,1939.39
28.23,87.71,175.96,-3.58,3.07,-5.35,519.29
49.52,60.68,171.96,8.74,1.94,-3.55,1164.63
32.28,67.61,279.5,-1.44,2.76,-5.17,928.88
46.82,81.84,237.54,3.81,-5.4,3.28,1093.47
26.9,74.39,168.9,2.05,-2.53,2.77,1063.46
26.39,54.42,298.07,-7.18,-8.99,8.25,1828.25
20.93,75.11,309.87,8.79,1.75,3.99,1792.25
39.55,57.47,295.08,-3.08,-0.81,-6.7,245.47
31.06,70.41,190.45,-9.1,5.21,5.03,690.22
45.93,71.16,287.96,-3.99,-5.87,-6.37,1505.55
34.2,85.05,152.14,-3.29,-1.26,1.17,1367.97
49.05,68.5,211.02,-8.15,-6.39,-8.46,1262.39
25.57,61.18,229.76,2.4,2.28,-9.05,1987.62
46.06,59.24,317.05,-3.06,6.96,-0.72,673.87
43.3,84.97,228.08,2.58,5.31,-7.9,1030.5
43.13,56.84,152.25,-9.87,8.88,-3.87,1958.3
45.34,67.03,220.47,9.64,9.43,-3.22,1391.1
42.83,57.49,249.78,-6.59,5.44,5.39,1297.36
38.79,80.93,339.8,3.19,-4.26,-3.35,309.49
23.94,68.97,338.21,4.32,-5.61,-0.11,493.31
20.98,64.05,186.17,-6.57,-1.05,5.45,754.95
47.63,64.44,187.03,-7.77,9.88,-5.9,929.69
38.5,84.09,182.68,-6.95,-1.75,6.1,994.42
43.9,72.15,307.78,-5.06,-6.02,6.64,1804.27
34.45,78.71,151.2,-6.64,8.89,9.78,214.42
23.52,85.88,175.44,3.48,-2.28,-1.12,496.71
18.85,86.07,257.59,-1.58,3.82,-2.59,287.27
40.57,63.14,199.51,0.76,5.76,4.04,1470.62
32.91,88.1,168.47,-9.05,6.86,-8.84,1941.16
26.02,51.0,221.98,7.22,6.43,-9.2,1787.92
34.75,65.07,204.84,-6.59,6.72,-3.3,1446.6
21.93,85.83,252.22,-2.8,3.35,4.59,43.05
37.46,60.99,345.85,-8.56,-1.92,-7.67,694.06
28.07,60.92,174.86,-7.26,3.35,2.71,1727.24
43.93,62.1,224.55,7.27,-3.92,5.14,1306.14
29.31,74.49,336.4,3.85,-2.99,3.03,419.2
33.66,67.53,325.37,3.54,-4.07,-0.86,932.97
20.35,79.07,228.85,1.04,-3.13,-7.7,175.84
22.17,85.8,289.79,9.05,1.03,-5.05,1041.6
31.77,76.97,167.57,0.14,-8.95,-5.61,1802.06
34.4,58.18,292.51,-1.01,5.58,-6.71,77.44
38.0,87.31,344.57,-5.05,-7.22,-0.63,1227.78
28.75,60.58,257.5,-8.02,-7.34,9.09,466.21
40.85,56.0,249.7,0.96,-6.05,3.16,1980.77
45.8,53.6,187.46,-3.7,1.54,6.72,130.2
43.4,72.54,276.76,0.48,-4.29,9.62,1234.58
21.19,54.55,268.09,-5.88,-2.64,0.81,512.74
34.42,55.55,280.39,6.76,8.63,-5.24,1764.93
23.15,62.0,155.22,9.99,6.94,8.56,243.86
27.26,61.27,259.74,-3.55,7.04,3.98,858.51
49.6,74.17,268.99,6.85,1.55,9.18,370.72
24.27,82.67,191.51,7.46,7.33,3.02,1598.89
34.97,80.45,191.67,9.92,5.57,5.5,702.89
38.54,60.5,205.24,-3.15,9.06,7.81,373.43
41.07,59.81,292.34,5.12,-8.71,5.18,1451.8
36.79,88.63,271.25,-5.42,-9.43,1.25,1634.43
20.29,50.33,319.15,2.5,-6.5,-0.56,924.79
29.79,85.19,209.13,4.1,8.58,6.47,2723.02
35.53,57.99,332.41,4.82,2.11,5.44,1264.29
22.64,87.89,298.74,-5.86,-1.48,-2.67,1302.79
30.52,63.69,229.0,6.97,0.25,-0.03,1321.49
21.0,67.61,169.05,-1.58,6.59,2.7,551.52
22.36,78.28,201.4,-5.67,8.58,-9.43,1882.6
31.91,73.51,341.35,0.85,4.59,-5.05,426.89
23.98,62.72,212.07,7.27,5.2,-5.0,748.32
37.03,72.15,215.98,9.34,-3.59,7.66,567.39
40.68,79.23,187.92,4.96,-0.66,-3.37,1862.25
44.02,51.69,311.37,-9.89,7.7,0.9,1656.74
26.0,50.45,205.13,-7.31,5.72,6.63,1622.54
25.02,68.32,216.05,-8.47,3.69,-4.81,9.42
23.14,55.27,232.87,-7.98,-8.7,-7.52,1371.8
39.09,76.57,236.75,-2.34,-9.21,8.97,460.55
41.19,58.56,232.27,-3.23,-7.39,4.09,1935.49
20.95,67.31,250.75,-7.73,1.63,-6.46,1061.5
48.09,57.91,312.9,7.64,0.73,6.39,1129.41
21.56,71.94,313.86,2.31,8.85,5.74,712.97
36.24,54.64,309.66,5.93,3.9,6.75,1073.46
41.27,50.92,170.22,-2.57,-4.12,-4.48,1499.47
46.13,52.05,309.94,-1.8,-6.77,-1.03,1123.84
41.42,88.17,174.05,-3.65,6.99,3.87,1282.53
44.05,55.69,174.94,-1.23,-0.81,-2.19,944.94
30.18,78.34,339.57,2.21,3.07,-8.6,1432.8
44.44,52.72,313.88,-0.14,1.3,-7.27,1799.12
22.4,54.33,260.48,6.76,-7.85,1.94,102.1
46.84,70.36,324.99,8.0,-8.86,-2.5,214.59
36.43,68.59,347.87,-0.61,-2.46,-9.89,1371.22
44.52,88.06,272.13,-5.21,-2.77,5.34,755.41
33.57,87.79,272.58,8.9,3.48,-1.67,563.24
39.31,81.18,300.89,4.7,2.64,-3.72,357.19
35.79,74.08,196.43,2.8,9.38,4.27,1145.27
41.95,68.2,183.42,4.91,7.16,-0.9,695.06
22.45,64.25,301.92,-8.48,-0.07,3.9,1015.92
21.81,87.88,218.98,-8.65,0.0,-9.74,1917.12
27.41,74.12,177.01,-6.94,3.48,-9.81,1516.54
24.79,73.16,212.98,-7.05,-7.72,1.2,1591.9
46.15,59.28,221.73,-1.59,10.0,9.64,248.4
26.58,51.87,343.05,-6.85,0.38,-4.55,649.96
49.28,87.81,289.59,7.09,8.2,3.66,212.47
30.11,62.55,256.17,1.56,9.35,-6.55,1937.04
25.46,67.7,343.77,-2.63,1.63,-3.77,1364.38
43.69,54.59,330.63,-8.61,-7.93,-8.44,38.47
39.76,83.48,252.4,1.82,1.47,7.62,951.01
34.95,51.11,331.14,-7.67,1.95,-3.79,527.05
36.66,83.36,230.86,4.86,5.78,-5.39,1079.92
41.58,55.61,196.08,6.06,-9.04,4.61,357.32
26.85,85.46,196.54,0.88,-0.67,-6.01,113.71
49.89,79.19,282.46,-7.01,8.46,-5.19,646.36
49.24,56.59,250.21,5.74,9.83,-7.93,591.01
39.51,72.63,281.79,-3.84,-6.17,9.26,1433.93
25.99,62.51,287.22,-5.55,7.41,-5.05,949.1
40.41,57.13,154.46,-0.59,-7.07,9.91,582.66
22.17,84.37,160.81,8.45,6.82,-6.48,1140.86
20.92,66.14,256.54,-4.05,-4.45,-9.59,142.63
27.73,65.94,188.21,8.11,9.19,7.91,1324.71
33.88,56.8,276.51,-8.93,3.91,1.6,294.58
46.05,65.32,260.44,-8.33,-2.02,-2.97,559.4
41.82,84.86,267.15,3.97,-4.38,0.27,564.25
42.28,64.53,210.49,-6.19,-5.3,-4.79,931.7
32.76,88.06,277.97,-3.67,3.62,2.7,1906.31
30.38,87.85,315.9,-7.27,7.92,2.33,649.32
31.13,55.8,349.61,-3.36,5.1,-8.4,562.64
49.63,57.09,317.69,-4.39,6.7,8.21,337.6
21.2,84.51,261.5,4.73,5.63,-0.79,783.94
46.01,65.71,188.69,4.04,9.58,-6.1,364.08
37.36,50.17,286.29,9.1,5.16,-3.85,275.54
33.16,60.95,337.53,4.49,-5.8,7.32,1714.72
41.76,73.91,192.37,3.9,5.83,-2.34,2723.02
34.6,81.97,201.2,3.88,-3.56,1.24,1421.65
46.2,55.34,179.8,7.66,9.92,8.95,405.14
47.02,54.42,297.34,-4.08,-2.47,3.03,23.43
32.65,86.88,231.31,-4.0,-4.14,3.51,1590.29
28.3,80.05,162.54,4.82,-5.22,-5.03,1404.57
37.77,73.59,324.99,-5.43,3.17,3.37,668.6
47.37,80.77,261.53,8.24,-7.82,-2.12,-110.99
26.32,67.15,497.15,0.7,9.07,8.22,721.34
38.69,80.34,218.8,-4.0,-4.11,-7.41,362.66
38.95,64.87,208.05,5.52,-4.09,-4.29,1865.01
41.99,59.76,241.1,-3.75,-9.08,-8.68,1059.25
23.95,79.16,217.41,9.27,-5.08,-2.38,1927.69
41.47,66.79,259.59,9.66,-1.62,-7.03,2723.02
47.27,89.26,304.7,3.34,-2.61,6.9,1112.93
25.39,63.98,284.89,-7.73,-4.54,8.5,380.25
27.13,86.87,208.89,-4.74,-9.19,3.39,1616.86
49.14,87.32,255.75,0.31,-3.99,-7.93,82.2
25.43,59.67,318.03,7.03,5.57,-3.17,1391.23
45.63,81.93,163.64,-6.3,-1.22,9.29,783.32
34.77,67.32,165.66,-7.91,-4.18,-7.27,1156.83
27.42,86.7,261.23,-8.51,-3.9,1.13,1184.52
46.12,68.0,277.82,0.14,1.09,-2.94,1421.59
33.36,79.77,192.28,7.69,-3.95,9.98,408.52
35.44,68.68,299.04,-9.15,2.62,-4.29,1062.77
30.78,59.11,279.25,-5.75,9.79,-9.04,853.85
37.79,57.97,334.66,3.87,-9.18,4.04,564.36
24.91,67.02,183.79,6.52,-6.63,-3.47,991.46
31.73,80.22,300.27,6.15,-6.42,3.15,1904.03
49.08,74.2,166.73,5.7,-1.06,-7.91,1897.77
27.74,77.55,263.06,-7.4,-9.17,0.46,557.63
39.7,61.29,260.38,-2.06,-0.45,-2.5,1768.41
29.76,69.26,227.68,9.69,8.58,0.74,-110.99
43.2,51.78,318.91,9.78,-9.77,7.07,499.17
23.93,82.7,150.87,2.05,-2.7,9.45,1197.9
49.09,89.6,254.04,4.19,5.22,5.06,1739.87
33.61,66.28,193.43,9.03,-6.91,5.34,1029.99
27.08,50.44,298.7,-1.0,-8.45,0.58,739.54
22.2,56.79,158.61,-7.26,2.62,-8.05,1301.57
25.09,76.1,316.31,3.38,-9.8,3.34,344.85
35.59,74.48,317.62,9.2,6.04,-7.04,323.46
30.11,81.51,316.57,3.94,-8.66,-5.09,1665.29
44.87,60.16,180.51,6.07,0.49,4.15,83.75
32.93,80.55,276.08,-1.55,4.8,3.14,1607.26
27.46,77.52,152.87,-8.07,-5.16,-3.71,580.99
38.51,62.91,319.59,-6.62,-7.93,5.44,966.24
41.2,71.82,294.6,9.65,-6.49,8.79,1087.03
25.01,55.89,256.23,-0.14,7.09,0.91,1534.14
25.03,68.1,296.12,-9.76,4.12,3.55,1767.72
21.1,85.25,168.86,9.11,-6.04,-4.56,1608.45
42.09,66.85,255.73,-0.04,4.32,9.42,1144.69
39.91,83.58,208.26,6.73,4.17,-4.53,696.03
34.24,73.61,344.52,0.97,9.95,7.75,1053.12
45.33,57.68,321.42,-7.97,-2.17,8.56,60.04
44.17,73.24,296.66,2.31,7.3,4.39,489.96
37.56,70.24,336.75,9.95,-1.07,6.23,732.31
46.05,44.56,219.37,-9.31,7.96,-0.84,639.51
26.18,54.79,330.18,6.84,-8.17,8.39,190.29
23.36,66.67,215.05,-5.29,-6.49,4.85,101.51
28.09,52.91,296.56,-2.12,7.0,-3.47,841.43
21.71,53.95,297.28,-2.55,6.39,-9.3,149.6
35.94,66.64,153.67,7.98,-3.89,0.82,572.42
48.1,62.22,222.21,0.09,1.94,6.81,949.65
21.18,87.02,153.89,-1.06,-2.35,7.21,419.92
23.66,65.03,349.42,6.36,-9.79,6.7,159.07
33.57,80.31,174.44,-9.02,-9.48,-5.71,864.27
48.02,71.21,258.56,-8.27,-8.91,-1.48,896.95
29.48,78.16,308.11,-9.57,1.88,2.28,1831.23
35.22,60.4,190.25,3.76,-4.42,3.35,255.68
21.25,87.68,247.01,0.51,-7.12,-3.31,1229.99
24.45,44.56,271.49,7.52,8.82,3.85,639.41
49.6,83.25,182.04,-0.03,-7.57,1.82,247.2
48.95,64.6,305.71,-5.56,3.48,1.34,786.29
20.15,54.01,209.87,6.1,7.88,3.26,855.88
48.55,76.95,192.2,-4.11,-6.72,2.07,727.13
39.17,50.31,261.66,8.71,-5.71,-6.66,1531.47
46.04,69.01,232.06,-4.99,1.48,7.49,1678.41
33.64,57.71,334.06,-6.65,0.17,-5.19,297.46
35.47,75.1,326.01,-0.13,0.42,4.89,335.81
34.67,89.18,246.67,-8.99,1.09,-6.47,842.44
40.01,68.58,221.85,-9.27,9.0,3.22,640.38
24.19,82.7,215.1,-0.08,-8.92,7.91,1639.15
20.9,70.31,203.51,-5.7,5.21,-9.81,1993.62
29.24,69.83,258.91,-9.81,-5.35,9.59,362.22
41.14,87.22,311.0,-4.08,-2.53,-9.41,1525.09
26.06,85.6,212.15,-0.45,-8.21,-9.77,1214.49
40.2,81.43,188.02,-2.11,-1.09,7.15,1288.85
49.1,61.85,245.1,-7.29,6.08,4.17,528.88
22.82,71.8,163.81,1.59,-8.03,-7.88,194.39
40.18,58.96,290.26,4.21,-4.49,8.75,1086.51
33.31,67.76,253.67,3.51,-2.54,3.44,1227.01
46.04,69.37,249.27,-2.12,-7.92,-7.78,1926.1
25.31,83.27,210.09,-7.25,5.25,7.21,1350.46
40.78,85.84,330.93,-0.01,5.74,-0.38,887.37
45.14,66.58,168.1,7.81,6.72,-4.44,1988.0
48.34,50.71,323.96,-0.63,1.68,6.5,746.48
40.5,84.47,225.34,-6.09,0.14,4.77,325.12
34.92,56.97,326.12,-8.14,-4.75,2.46,1235.96
38.54,44.56,295.75,8.88,3.1,7.97,532.5
46.07,51.0,170.83,4.86,-1.11,7.23,1844.41
37.12,65.98,316.31,-3.74,9.42,-5.46,855.74
20.91,89.44,286.44,-9.8,-13.6,14.49,299.23
47.93,54.03,156.46,-12.9,-11.94,-6.3,283.26
40.69,66.95,176.74,-6.45,-2.8,-1.36,1299.28
40.3,62.29,277.13,0.7,-2.64,9.45,731.79
26.47,86.2,282.52,4.27,7.05,5.2,727.45
39.77,84.77,299.33,-2.07,4.58,-3.57,1224.65
31.82,59.51,294.05,-9.2,4.09,2.96,443.02
39.54,53.25,281.9,-5.44,-4.41,0.79,290.86
23.2,75.09,303.25,8.04,6.67,-7.67,1314.53
39.74,63.45,265.02,0.46,1.59,7.76,10.47
49.98,76.88,202.16,6.31,-1.06,6.44,1814.73
21.45,51.28,332.48,1.11,7.31,5.55,365.94
49.32,55.34,153.64,8.87,-2.12,1.18,895.71
32.21,95.86,223.31,8.18,3.08,-5.58,422.96
46.12,58.49,295.77,-0.34,-0.68,7.68,436.44
43.47,84.3,235.43,-3.63,1.85,-2.94,1670.0
37.01,52.34,154.97,2.03,-9.19,-9.6,1170.07
42.15,58.62,163.2,3.5,-0.78,9.64,622.9
46.36,89.94,279.73,-0.03,1.13,7.22,502.2
32.12,67.32,342.97,6.45,-0.15,2.45,425.72
29.81,78.12,260.37,-6.33,6.95,-9.75,1108.9
40.03,57.31,251.35,-3.31,-3.78,-5.45,1461.58
44.24,74.39,213.67,3.73,7.68,-0.96,507.05
42.87,79.04,201.34,-5.07,-1.93,2.56,664.6
43.93,62.58,154.2,-1.2,3.89,4.16,-110.99
33.07,83.16,204.59,9.27,-8.27,5.77,1474.56
44.54,74.14,239.82,2.52,-6.0,1.11,414.65
23.61,65.56,189.59,8.98,5.22,3.12,764.4
36.33,72.31,167.47,4.45,-9.75,6.22,1739.92
20.17,95.86,293.55,4.49,9.37,4.4,1480.38
29.74,56.62,328.92,1.84,-6.19,9.1,324.99
30.99,66.11,337.35,-7.16,8.03,7.49,771.93
31.89,63.74,273.6,0.39,0.32,-6.61,1946.59
40.86,66.04,160.55,-4.95,1.29,8.95,1050.76
31.66,80.44,298.17,9.97,-8.32,-5.92,1438.69
33.46,69.3,172.02,-4.66,-2.7,9.83,184.07
27.13,87.61,283.95,-5.39,-6.88,4.03,1665.02
31.2,61.75,305.87,2.48,0.52,2.55,1209.57
26.82,66.63,295.17,0.22,1.01,-3.51,351.2
22.2,81.48,340.38,-9.57,4.19,-7.34,760.42
38.1,71.84,297.63,-7.41,7.57,-7.48,166.06
40.05,71.88,288.64,6.22,-0.64,7.33,1554.02
38.58,52.13,202.35,-0.33,-5.33,-1.35,1489.76
33.9,65.94,334.95,-7.08,-3.33,1.2,980.46
31.39,60.83,185.91,-0.7,6.94,8.64,904.03
45.9,89.97,330.98,-4.94,-7.08,-4.89,926.85
35.57,62.33,212.53,-5.53,2.55,5.28,74.93
34.38,85.38,176.03,9.15,-9.74,-0.59,736.49
20.77,77.05,315.34,-2.76,-5.09,-5.74,257.01
30.24,63.64,150.5,-9.07,1.83,7.06,369.58
31.41,71.74,316.42,9.41,-0.87,3.6,1924.23
31.96,83.62,202.46,5.9,-0.13,-8.1,523.57
37.41,85.33,326.94,-4.91,3.21,0.84,967.25
36.01,56.42,288.3,-1.82,-5.31,7.04,1775.58
38.24,63.58,497.15,7.25,-4.38,-8.66,826.98
42.95,63.41,223.06,-2.85,3.69,-1.67,1057.24
44.39,51.68,161.88,1.35,0.77,6.1,337.58
41.54,73.93,316.01,0.7,-9.71,7.17,570.16
48.67,84.19,184.18,-1.97,3.41,5.51,1012.23
20.55,65.26,224.45,2.79,2.4,-3.89,729.8
25.87,79.6,270.07,-0.53,-8.43,0.14,76.51
20.23,75.11,246.45,-9.58,4.95,4.83,801.66
39.42,65.03,189.73,6.29,0.44,-6.95,1630.21
46.94,95.86,178.12,-7.74,-5.91,1.9,232.12
27.3,78.37,174.65,-0.72,1.19,4.41,37.46
47.81,84.18,322.6,1.6,1.91,7.0,237.41
21.81,77.43,156.31,4.11,8.4,-7.77,1373.74
48.03,50.72,345.4,-1.78,4.84,-3.41,1589.29
30.55,58.65,189.71,4.71,-3.96,0.83,97.45
23.04,52.78,172.06,-7.37,-7.64,4.02,1775.1
34.58,72.82,265.39,3.07,7.06,4.6,1254.65
27.7,80.26,166.0,6.53,6.92,-4.93,1036.26
28.55,54.42,270.49,7.79,-6.49,-9.72,507.18
29.22,83.53,320.13,1.59,-8.76,3.88,743.4
44.09,72.22,159.58,-3.74,4.24,8.18,1893.95
36.17,77.6,309.97,-6.73,4.45,5.95,1823.09
29.34,88.86,228.9,-3.09,-6.46,2.45,1250.93
38.31,53.35,181.9,0.8,3.36,9.55,1157.82
41.48,86.05,185.22,-6.07,-4.42,-1.34,421.09
28.18,55.04,333.75,9.05,-4.79,0.5,1906.56
32.41,65.72,172.12,7.94,-3.51,-9.75,1510.78
23.66,84.06,323.36,-9.34,0.41,8.92,764.52
25.43,86.25,258.85,1.24,6.09,1.67,1631.66
40.43,70.25,157.81,5.79,-0.03,-2.18,423.75
25.44,73.76,242.9,-5.09,-4.04,-9.11,426.46
35.75,78.33,313.49,0.48,7.68,-2.75,1581.92
41.27,83.31,295.24,-1.88,-8.9,-9.93,1118.62
23.21,54.86,247.76,-6.07,5.94,-3.51,1111.67
37.02,82.4,322.01,2.29,5.69,9.03,1147.34
27.7,69.25,174.07,9.87,-4.93,-6.91,251.61
48.89,68.02,331.99,-2.69,-6.03,0.91,699.12
34.51,66.96,319.29,1.05,7.49,-6.27,1146.16
53.04,70.37,291.66,-3.44,1.18,5.67,495.18
36.51,87.8,313.58,7.54,-9.08,1.25,1008.01
21.3,71.93,258.76,7.29,7.82,-5.96,1114.07
38.99,88.13,285.03,-6.42,-3.02,7.32,1885.63
48.54,57.21,262.12,8.0,-3.16,5.68,491.55
18.85,78.97,221.09,-6.97,2.87,9.03,878.71
44.58,82.49,263.77,-8.09,3.23,-9.99,1963.02
46.53,77.17,201.49,3.06,-2.93,-0.86,373.58
26.84,74.28,238.06,-2.28,-7.13,10.0,1560.04
26.36,72.59,206.16,0.61,1.05,6.22,354.31
38.33,84.44,174.58,3.05,2.5,6.63,1700.09
32.33,82.87,214.37,-8.94,7.2,2.42,975.95
45.2,54.89,320.4,-4.14,-0.31,4.26,1944.32
47.0,83.94,226.22,-0.78,2.91,6.11,340.15
30.6,66.56,299.6,-4.67,-8.91,-8.15,1375.85
27.11,60.15,185.04,-9.02,7.89,3.85,1390.56
43.42,84.79,234.88,-8.27,-3.46,6.31,1437.75
28.24,67.28,172.97,6.03,2.64,-9.18,201.94
44.68,82.33,177.72,8.23,8.32,-4.06,577.12
32.71,60.54,273.49,-6.96,6.21,-3.52,676.03
40.03,50.16,271.5,-5.01,2.75,7.09,648.58
22.87,69.82,192.67,3.04,4.07,5.61,1350.04
38.72,54.01,244.88,9.09,8.42,3.13,109.66
33.55,80.18,322.66,-4.01,6.24,6.09,2723.02
37.6,61.04,184.84,7.1,2.2,-0.93,1053.17
25.04,67.75,153.84,0.12,3.17,7.5,345.99
42.11,53.48,280.4,9.13,-7.05,-5.32,452.24
45.88,61.47,160.7,-7.27,-0.6,4.09,195.16
26.5,81.26,345.99,9.47,-3.98,-5.16,918.12
22.87,56.06,271.92,-1.18,-1.36,-9.2,1189.84
20.71,75.89,244.08,9.06,3.24,-4.32,1161.94
39.26,86.7,236.0,-0.83,-7.02,-0.14,1924.74
38.21,77.19,264.61,0.6,-9.65,6.87,591.93
36.4,82.44,168.12,6.1,-2.06,0.18,1524.16
26.96,54.36,336.0,4.45,-3.56,-6.42,1446.16
31.73,60.03,275.13,2.39,-1.59,9.86,122.65
37.83,85.78,186.8,-1.66,8.62,-4.6,1860.01
34.9,78.6,262.52,5.85,4.14,9.71,1862.61
49.63,75.58,176.65,8.96,-3.45,8.73,792.67
24.09,76.55,153.51,-9.8,-6.41,0.85,835.36
40.85,66.57,276.1,1.76,2.37,-8.16,1639.19
32.13,51.78,279.7,7.32,3.15,3.91,990.06
32.85,81.38,266.74,3.06,-0.33,6.91,1598.4
41.53,77.15,186.7,6.02,-5.74,-1.09,72.25
40.77,68.91,270.69,7.9,-9.43,-5.22,500.54
49.74,85.99,161.3,5.02,-4.69,6.06,182.13
23.85,63.45,271.85,4.34,-0.86,0.9,908.4
23.12,61.77,260.8,9.29,5.76,-6.05,1708.32
41.73,84.91,281.05,7.27,7.08,8.99,1139.58
37.35,81.88,329.1,6.31,-1.74,8.96,1040.67
28.22,70.6,320.07,-8.27,5.92,-2.66,732.21
22.38,55.23,346.13,-5.22,9.87,-8.72,127.22
22.57,58.6,345.25,1.14,4.33,2.62,1532.82
46.83,76.25,497.15,4.19,4.57,-3.66,1141.53
25.76,65.4,341.28,-3.94,8.19,-8.67,1861.93
29.7,83.46,323.46,-8.13,-3.24,7.84,863.93
26.8,88.0,295.52,-3.78,-9.78,9.96,803.0
30.65,82.23,165.08,5.42,9.74,-2.99,1948.69
22.08,65.1,159.81,7.55,-0.19,4.89,282.31
35.57,81.55,317.52,8.26,5.71,-8.68,504.72
22.03,64.06,247.93,-2.42,6.25,-2.61,976.33
44.01,56.68,312.92,-2.55,-2.05,-7.82,1047.09
27.01,51.34,212.58,-1.87,0.83,-8.89,1097.43
36.2,65.43,229.53,-2.48,0.8,1.78,424.22
46.4,86.14,290.04,3.32,-5.6,6.04,1853.7
39.53,59.56,333.07,-2.83,-7.65,-0.94,2723.02
35.99,58.26,167.55,-9.59,0.87,0.48,516.88
29.73,88.79,322.3,-1.22,-7.6,-4.59,588.39
29.99,51.0,308.6,-5.52,-3.08,4.73,1760.72
40.08,81.43,75.22,-9.42,-6.28,-2.78,760.71
49.82,62.85,221.04,-0.58,4.14,-8.65,1112.73
39.86,51.5,159.29,-5.88,7.44,-6.69,240.85
36.73,86.71,153.15,-0.95,1.56,-7.43,503.47
41.92,55.59,245.4,-4.45,-1.8,-1.28,833.15
33.96,72.07,169.11,2.07,9.93,-8.7,1312.27
21.8,60.96,188.8,9.82,-9.58,6.13,560.44
36.87,52.61,319.35,0.94,-3.91,8.16,1901.52
48.73,52.0,264.21,2.94,-4.43,-5.03,440.43
25.26,54.62,276.73,8.39,-2.88,-0.29,1557.81
40.7,52.85,187.5,-2.52,-5.39,0.38,729.2
26.03,80.42,315.73,-6.67,-4.71,9.7,1666.8
36.07,69.42,323.6,-4.34,-4.85,-8.69,1846.21
22.9,63.72,254.67,-1.94,0.11,3.36,2723.02
33.51,66.73,332.51,2.9,-2.18,-3.08,982.95
42.68,87.16,318.97,-9.91,2.79,0.04,308.73
30.43,86.43,296.26,7.07,0.29,-5.66,1411.65
39.95,78.63,296.82,-8.48,-6.33,-6.8,1664.48
43.86,85.39,171.08,8.01,6.2,-5.13,778.94
47.82,62.79,204.17,8.99,-0.56,-8.57,793.5
27.04,65.24,163.37,9.8,-6.94,-4.44,407.68
31.98,74.55,151.74,6.19,-6.66,3.81,613.07
24.57,74.95,181.66,-7.16,5.94,3.03,647.79
49.77,69.27,326.1,4.12,4.06,1.09,311.15
47.81,66.03,197.97,-5.93,0.13,-9.99,619.9
36.2,89.45,344.03,7.94,-3.88,-7.48,1814.51
45.26,82.84,269.46,-3.67,-0.79,6.86,650.77
35.63,67.4,197.45,-3.46,2.73,-4.57,548.87
38.71,79.09,249.43,8.35,7.59,8.24,769.28
22.67,60.78,193.82,-9.74,1.12,7.49,1920.55
42.66,54.01,346.79,-6.12,-4.47,-6.9,1529.16
23.83,64.1,319.45,-1.56,-9.15,7.96,403.48
44.78,66.12,155.25,4.01,-6.49,2.56,1505.1
43.46,50.66,339.56,2.95,3.0,2.61,1532.47
41.26,82.59,294.21,3.39,-6.79,7.05,1900.27
21.08,64.37,166.48,7.6,-0.37,-1.9,1782.19
29.09,95.86,284.13,-7.58,3.98,4.71,190.39
27.89,52.96,279.39,0.44,-3.84,3.36,909.15
30.8,57.0,193.76,4.51,3.38,5.43,1405.99
22.63,95.86,301.69,2.72,1.62,3.2,1946.74
48.11,74.35,75.22,-1.03,-1.22,-8.4,170.31
36.61,88.01,247.89,-9.66,7.94,-4.15,-110.99
29.17,89.95,151.98,-8.79,3.84,8.8,984.45
31.91,64.87,343.75,-7.62,-2.79,-5.53,826.49
33.42,61.95,300.31,-3.14,6.09,-0.55,911.56
38.02,84.33,181.77,-7.65,4.76,-2.86,738.2
35.47,89.94,218.33,-1.48,5.83,-8.27,1941.25
47.58,75.19,182.11,-6.43,2.82,-6.38,1606.49
34.91,81.81,303.32,5.58,-2.41,-4.27,1473.32
49.76,81.27,161.78,7.43,-3.03,-0.73,821.4
45.54,64.21,318.08,-2.21,3.08,7.49,1763.05
26.26,72.97,338.44,0.23,-7.38,0.31,186.68
47.92,83.32,285.33,9.07,6.4,3.04,286.84
23.49,77.52,192.59,0.71,-2.59,-1.48,1908.12
44.52,50.85,222.02,9.9,2.61,7.4,1133.98
31.42,63.47,245.45,-7.16,-0.02,3.25,318.92
46.34,55.78,270.92,7.24,0.39,-8.19,1898.29
46.04,59.32,283.73,-0.06,4.76,-0.45,1949.69
44.18,86.22,260.84,-9.55,2.53,6.54,1762.99
43.7,51.48,220.26,9.44,-4.99,4.67,477.12
29.14,58.79,328.18,9.3,-8.52,8.11,556.99
22.43,62.38,166.28,-2.33,6.8,-5.45,813.95
32.09,74.68,243.25,9.08,7.7,9.54,1158.64
25.21,71.36,305.11,-7.18,-6.71,-4.3,1984.36
40.85,58.73,162.17,3.6,-3.81,-9.0,1912.27
30.38,56.57,291.07,-6.16,-4.35,-0.09,1842.28
49.27,59.47,313.94,-5.07,8.75,-7.79,178.55
39.23,70.1,282.17,5.59,-5.9,3.63,1514.33
44.67,60.85,152.59,-2.45,-6.67,8.01,1753.69
23.98,87.9,186.03,-9.86,-6.36,8.43,666.56
45.86,68.55,218.42,-1.72,4.6,2.14,439.15
47.68,52.35,196.74,-5.44,7.76,0.71,1496.88
34.61,95.86,342.53,3.67,-2.13,9.88,181.68
38.19,63.15,280.32,-6.11,-7.28,1.59,1881.72
42.94,76.14,209.39,6.85,1.71,8.55,312.16
25.25,61.18,335.94,-4.66,-5.8,8.33,915.08
18.85,72.83,298.12,-2.14,-8.72,-4.21,1965.6
31.96,80.89,206.92,-4.04,7.72,-9.72,1976.44
24.39,87.12,225.78,2.88,7.42,-1.22,1551.98
31.03,60.45,189.89,-7.98,9.52,7.23,1678.38
22.05,63.39,344.21,-0.44,-0.52,6.72,1934.34
20.77,68.57,253.46,-3.31,-4.12,2.07,1854.86
24.05,87.09,329.21,7.68,5.4,-6.87,1244.22
48.89,86.06,219.3,-8.53,-6.39,-7.85,1469.23
36.49,53.6,322.17,6.59,-5.13,9.09,1187.55
48.97,55.28,160.78,-6.65,-4.89,-1.57,1012.99
32.97,69.82,346.42,-8.23,9.03,2.96,1761.66
29.35,54.26,332.41,-5.95,4.6,8.12,1476.05
35.18,63.82,222.64,-7.95,-7.33,7.4,1719.63
33.19,55.94,304.94,0.42,-8.14,1.34,191.82
23.17,75.44,300.45,9.76,6.86,-0.24,1152.97
53.04,87.98,330.25,-9.31,6.05,4.71,659.03
26.48,89.87,211.45,-0.78,3.42,-3.01,1026.79
38.59,65.01,243.1,-2.28,-6.08,2.51,1225.93
39.51,73.96,323.0,-3.21,-0.39,-9.54,1691.52
24.56,84.25,305.72,-3.36,2.05,6.49,63.76
21.84,54.7,228.69,7.9,8.64,9.96,327.97
43.42,77.58,319.15,-9.62,-6.61,9.09,1842.89
33.79,66.35,159.39,5.5,0.31,-2.8,1934.54
21.74,58.25,497.15,-4.94,-6.84,0.62,110.85
49.85,66.11,191.35,-2.33,-1.12,-5.28,663.58
21.73,53.04,207.22,-1.6,-6.0,-3.94,19.46
40.85,77.82,248.64,-3.91,6.72,-0.85,1514.9
49.51,60.11,239.95,-8.13,-4.91,4.94,1363.88
27.18,62.46,254.11,-7.71,-1.66,-9.64,1129.61
24.27,54.84,258.96,-4.04,-1.84,-2.12,1383.32
23.64,84.59,216.31,6.44,7.33,1.13,1075.58
29.1,69.74,185.05,-7.31,5.16,-5.7,477.68
23.03,72.89,303.7,4.85,-8.85,-8.43,1508.67
40.76,72.78,230.0,-4.22,-8.66,0.79,1566.56
21.87,66.42,251.17,7.67,1.02,2.76,1708.4
35.28,57.7,278.94,-1.43,-1.45,2.82,1908.15
49.9,79.81,331.93,-6.57,-4.49,-2.87,1495.08
44.42,55.08,291.51,9.72,5.85,-5.25,109.1
38.46,54.15,159.09,-6.47,-7.43,-5.59,41.68
29.19,78.41,317.71,1.35,9.48,-9.19,1479.74
38.72,58.35,347.87,1.39,-9.52,-6.31,112.1
35.81,62.27,244.5,-2.54,-7.64,6.37,631.89
32.78,69.01,343.92,9.03,-3.77,-9.94,272.32
23.92,67.97,259.47,6.88,0.18,-9.12,1937.8
46.6,78.34,241.92,6.6,-5.68,-7.46,632.79
33.49,74.94,216.28,9.48,4.72,-1.6,110.29
25.84,75.78,281.51,-0.86,-2.85,-3.33,1899.22
31.03,78.56,195.96,-8.06,-9.23,-6.44,1217.49
32.42,61.7,170.99,5.31,7.55,-7.78,72.22
44.83,62.89,155.45,-2.38,8.88,8.78,1666.72
42.01,67.52,208.48,-6.19,2.37,8.23,305.06
43.08,62.3,229.15,-0.34,6.13,5.44,1604.87
20.33,89.4,260.42,8.51,-7.58,-4.96,1205.5
32.48,82.56,208.55,-6.57,-4.62,-3.53,354.23
34.44,56.59,346.81,6.97,-3.5,3.32,1505.2
20.58,50.22,208.35,-1.64,9.22,-4.17,909.01
27.79,51.71,238.2,-7.26,0.24,0.61,1276.2
42.81,59.76,170.66,6.97,-9.85,3.03,1739.03
24.11,54.57,202.13,9.39,-2.4,0.38,520.6
36.06,71.33,159.67,-4.17,-9.84,-1.73,731.94
26.46,84.32,261.9,-3.93,-5.24,-3.04,1994.54
20.36,79.47,300.21,-2.19,-0.91,5.55,1016.23
27.24,58.62,189.14,6.28,-3.53,4.78,1117.01
49.28,65.97,223.58,-9.79,-9.35,3.92,570.88
44.05,70.32,153.32,-5.52,-7.67,-2.51,832.05
48.79,82.41,317.9,4.12,1.02,5.51,1003.1
34.64,83.56,305.99,-1.89,3.91,9.15,516.89
23.29,86.39,162.65,-3.39,-1.91,3.78,476.29
36.44,44.56,222.97,7.45,4.63,-1.84,1200.93
33.63,77.77,341.06,8.35,-6.73,5.93,367.3
45.33,54.47,228.41,8.96,-7.56,2.19,1106.92
22.94,72.61,255.24,-4.55,6.79,7.55,1412.43
34.65,59.95,221.05,8.25,-3.22,4.26,396.52
24.5,67.27,269.23,4.74,-1.36,5.4,1491.76
29.74,75.36,345.63,-6.92,8.95,3.35,719.37
42.12,60.28,349.5,2.21,-1.52,-8.16,1985.01
34.28,52.09,304.94,-9.47,-9.93,-0.3,1958.15
31.28,50.41,230.86,4.17,8.76,-8.87,1597.19
31.83,50.89,248.89,4.67,-9.72,-1.05,685.44
33.78,50.33,221.35,5.79,3.25,4.33,1874.42
43.55,54.41,347.11,-6.55,-3.54,-1.57,1997.56
46.76,59.58,291.55,2.56,-0.59,-9.97,924.56
48.66,58.85,239.79,-6.42,0.95,-2.61,1229.18
43.61,89.47,152.42,8.93,-1.83,-8.64,11.97
29.46,62.24,254.1,3.5,5.49,5.61,87.07
40.64,55.1,346.79,-8.09,8.61,5.68,1001.2
33.13,71.82,254.61,-6.26,-8.27,6.13,1218.63
27.64,84.32,186.49,3.27,6.01,-9.39,624.79
45.23,77.12,154.42,-0.47,-7.43,-9.35,198.26
21.15,61.84,220.94,4.73,-8.39,8.07,1564.54
47.05,72.46,333.65,-4.38,9.12,-7.53,837.52
33.84,78.59,349.31,3.16,-0.21,3.4,1297.7
39.12,79.12,339.07,-6.46,-6.95,5.91,1300.4
39.78,76.66,295.88,0.87,1.4,-1.04,1093.68
46.85,84.83,261.63,9.16,-4.74,0.93,356.98
39.1,84.8,268.14,2.56,-0.71,-5.45,1232.16
38.42,73.16,257.8,-9.0,2.49,8.47,644.17
22.0,67.19,291.41,9.78,7.39,-3.96,1638.25
35.55,75.66,233.77,-6.86,-9.94,-5.64,386.39
24.51,82.73,283.84,4.36,-5.72,0.51,582.3
42.12,50.23,174.32,0.65,-8.07,-6.19,880.61
35.37,89.68,203.14,-4.11,-8.06,3.73,1480.03
40.41,57.32,317.2,-6.45,8.92,0.3,1441.5
21.25,68.81,330.75,-6.45,8.72,-7.04,674.22
22.54,84.88,257.8,7.17,4.99,-8.66,1021.5
41.49,59.0,156.33,7.46,2.86,-7.26,468.47
22.16,69.07,335.39,-0.7,6.96,-7.27,1540.73
22.14,55.3,290.41,-7.93,-8.83,-3.74,393.42
20.36,65.8,232.81,7.68,-7.61,6.67,1638.69
48.7,57.09,269.68,-0.26,-3.66,-8.85,1873.73
42.13,64.55,235.95,-1.22,6.65,-7.44,1983.23
30.6,64.94,243.07,-1.85,-0.56,-3.94,1713.92
28.9,89.73,327.36,-2.7,0.07,1.07,443.4
30.49,89.79,182.22,0.52,-5.41,5.26,833.03
43.24,54.59,170.73,2.09,2.97,8.42,177.67
39.84,79.04,150.55,-0.67,7.76,-1.76,329.1
25.56,52.07,212.8,7.93,-3.41,-7.88,99.39
25.22,51.21,179.48,-3.65,2.38,-5.73,1282.18
22.95,54.21,194.0,1.57,-3.36,-4.26,1066.37
39.81,88.62,152.25,-4.0,5.85,5.72,1834.03
42.93,87.63,195.44,5.07,-0.5,3.73,926.02
27.95,57.76,216.54,-7.96,-3.21,-5.82,1284.61
20.63,56.47,156.31,-6.23,-1.6,6.77,803.19
22.47,59.62,271.58,6.02,-8.18,7.18,1658.91
49.04,44.56,263.76,-6.34,7.32,7.65,1852.75
28.86,72.79,169.41,2.51,9.16,-4.5,863.46
43.08,58.86,269.0,9.4,-0.45,-7.33,165.4
38.74,80.26,349.73,0.46,-5.57,-7.92,327.07
31.46,62.38,338.89,-6.25,3.29,-2.0,1441.09
26.17,86.89,150.53,-3.59,-0.95,-1.41,650.53
23.64,76.27,309.08,6.47,-4.95,7.36,1570.77
38.45,67.45,220.72,-2.97,-9.23,-4.64,1499.52
43.24,81.6,162.73,4.47,7.79,2.54,1388.6
39.32,82.72,209.2,5.55,5.93,5.76,1628.43
35.91,61.62,214.35,0.02,6.58,-4.62,1513.11
21.26,63.59,254.65,5.66,-1.2,-4.66,1265.18
49.05,87.44,282.22,-3.66,5.07,3.38,8.45
43.96,56.59,299.81,0.32,1.62,4.52,1031.35
28.78,51.69,199.18,3.73,-2.5,9.2,1190.51
49.4,68.16,214.35,-6.64,6.85,7.0,1921.29
38.06,82.05,211.68,-4.53,9.98,6.44,1300.96
37.47,80.87,222.55,3.04,7.99,3.85,1150.95
42.44,86.78,349.93,3.11,5.52,-7.63,1082.39
44.35,71.33,305.59,-0.13,4.95,6.18,206.59
39.69,54.0,497.15,5.91,3.0,8.71,855.24
23.84,73.55,288.62,-0.36,7.07,-2.19,268.71
30.15,81.14,231.25,7.63,-0.14,-3.73,105.4
47.84,53.73,227.95,4.72,-6.37,0.45,658.94
26.74,56.91,247.72,-3.71,5.36,9.13,1290.88
31.17,50.49,233.37,-2.09,8.39,-8.98,1733.59
32.96,73.75,315.67,3.35,-3.17,4.18,1620.73
33.18,85.47,243.0,7.89,5.66,6.29,589.38
38.39,76.83,209.12,-6.43,-4.53,5.77,91.99
48.29,89.28,304.97,0.29,8.85,1.34,805.36
27.22,52.52,320.88,-7.62,3.67,8.41,629.56
23.65,86.12,234.09,-4.41,1.39,-7.31,742.53
25.92,82.56,283.56,3.72,5.6,-5.1,1118.2
46.61,62.57,161.76,-8.45,6.26,-3.86,60.83
39.37,88.94,255.89,3.25,7.85,-9.83,741.61
28.58,61.52,159.0,8.02,8.02,-2.59,1117.27
44.48,85.57,155.84,9.39,-8.95,-6.79,861.94
45.84,85.23,272.58,-5.67,-7.54,4.49,1334.46
45.4,44.56,210.67,4.98,6.52,-1.7,372.26
47.57,72.54,298.51,8.53,8.92,4.09,307.66
27.57,54.8,329.22,-8.17,-3.85,-4.13,615.75
42.65,71.28,177.88,-1.72,-9.83,-7.36,203.46
33.82,64.27,294.9,8.39,-3.55,-7.36,472.52
45.26,81.69,252.9,-5.94,-2.34,-5.93,173.81
41.85,80.33,172.42,8.68,5.22,-7.7,803.96
43.29,86.42,280.32,0.54,-9.05,-5.59,1422.91
39.68,50.59,271.89,-8.0,-5.75,1.58,573.08
25.32,82.36,497.15,-1.0,7.88,-4.87,7.46
36.35,87.54,335.29,-3.47,-6.9,-3.14,1114.13
49.54,81.57,254.22,-4.36,5.18,-8.95,1383.88
48.12,55.21,348.1,0.83,-2.77,7.84,782.63
21.3,53.25,251.85,-0.33,3.25,-7.24,594.0
24.94,50.83,173.17,-0.36,-8.52,-3.03,981.28
23.95,75.15,244.09,-8.24,-4.27,-2.41,202.48
41.78,75.19,186.47,6.05,-1.5,5.44,1287.85
44.53,89.48,269.43,-0.37,7.14,-0.33,1466.59
26.41,65.92,288.63,6.42,1.27,-2.34,1409.26
35.18,63.28,243.69,6.49,-9.1,3.92,657.33
45.22,74.98,169.54,-3.66,6.04,1.94,1685.42
41.98,83.02,243.73,-9.91,-8.91,-8.44,1893.7
36.27,87.47,166.29,8.22,8.69,-3.75,594.15
37.71,82.12,286.43,5.21,-5.77,9.57,525.44
35.25,67.07,308.07,-7.85,-0.24,-0.33,1408.21
28.93,75.4,342.48,4.03,-8.55,-1.52,1416.56
36.95,84.25,179.76,-9.6,1.23,-7.0,1020.83
40.67,69.62,256.48,-9.44,-0.06,6.78,1846.64
46.2,58.67,263.51,0.52,-1.8,-7.33,292.63
39.09,56.79,334.5,-8.08,-9.29,-7.9,954.73
42.83,50.01,275.46,9.29,7.58,-1.22,70.41
24.8,78.73,179.1,7.88,6.05,-1.27,105.31
33.85,54.44,237.27,3.0,2.66,9.63,107.37
20.28,59.75,280.95,-8.73,1.44,-7.45,983.58
27.4,61.92,290.06,-3.5,3.9,-0.32,1177.93
41.79,72.42,322.61,-2.57,-7.12,-5.98,6.97
49.75,65.92,186.1,-0.38,8.65,4.04,1265.09
22.98,76.99,340.31,-6.62,-4.31,-2.17,979.4
32.04,52.23,161.83,1.55,3.13,2.97,447.6
44.0,54.96,346.75,-1.28,2.14,-3.23,30.2
26.12,69.97,321.55,8.95,2.73,1.29,312.21
36.65,63.48,282.05,8.72,7.58,-0.62,1200.66
41.99,61.83,297.0,1.31,-4.08,-2.51,1317.68
38.48,52.68,164.54,2.89,4.98,0.75,1294.12
25.64,85.83,158.3,-7.24,1.97,-2.32,306.32
30.66,77.67,170.35,-5.53,-8.48,6.12,1822.43
43.51,54.86,167.47,8.01,-1.72,-0.1,821.9
36.63,52.6,259.48,3.98,6.76,8.06,1536.01
20.16,88.99,193.09,-6.21,-3.69,-5.54,332.96
42.83,77.25,322.04,1.4,-0.35,-7.76,941.14
21.06,66.7,239.15,8.7,-0.23,-2.38,1043.04
42.37,78.07,289.1,-3.1,2.36,-6.33,1540.71
26.07,80.25,280.57,-6.28,7.68,-2.14,1243.04
48.74,81.2,213.97,8.84,-6.53,-5.85,798.6
31.04,69.12,198.63,-0.77,0.09,7.36,565.03
29.81,67.2,218.49,-1.66,-1.51,1.36,1945.91
24.47,50.44,309.33,-4.65,-4.08,-0.05,569.06
29.17,87.06,267.26,7.83,8.39,5.75,258.95
46.3,74.13,200.71,6.91,-9.84,-7.39,600.83
49.89,58.13,313.57,-1.94,-7.56,7.14,653.87
31.05,86.78,160.95,-9.39,4.67,-0.33,255.72
33.46,86.6,289.84,-1.07,-4.73,-7.27,1416.29
41.66,89.57,237.82,-6.38,4.46,6.39,1238.33
46.59,84.96,296.26,-7.15,6.65,-0.78,633.23
37.79,89.91,335.49,-2.14,-4.91,2.09,1986.0
31.75,59.79,300.01,-8.02,-6.16,7.87,1310.02
32.38,83.69,238.39,9.15,-7.09,7.81,1406.37
40.87,82.92,180.2,-9.05,-6.0,7.86,1114.37
20.1,59.24,311.27,-1.97,-4.66,-1.66,1103.15
38.59,53.94,242.14,-6.75,7.37,4.99,40.04
30.66,89.18,165.06,3.78,5.4,-5.33,1541.81
43.83,61.84,293.81,-8.42,-9.96,6.62,1821.48
22.79,84.84,208.37,0.94,7.48,-3.17,244.53
37.65,50.17,159.78,5.46,-8.42,-0.72,1591.26
34.43,50.84,330.55,9.0,3.11,7.83,1068.61
39.27,68.63,246.62,3.97,-6.97,6.11,570.62
21.95,59.55,206.19,-8.01,-8.75,9.05,1841.77
37.4,77.59,293.28,-8.23,5.2,-2.73,34.74
36.84,72.62,327.18,4.63,-0.66,-6.98,548.12
36.82,53.1,150.06,-5.69,1.98,8.21,1772.5
38.1,56.51,287.57,-1.06,-1.49,-0.14,962.03
40.29,65.52,303.4,9.53,-8.66,7.79,1197.84
44.15,57.42,191.99,6.4,4.79,4.64,1499.54
28.09,81.69,247.92,6.93,6.41,7.5,295.95
44.75,66.64,167.86,7.22,-9.17,3.09,430.35
34.95,53.74,299.35,2.39,-2.49,6.25,2723.02
22.31,69.37,319.49,4.88,1.15,-7.59,474.91
21.76,53.63,171.64,-2.82,2.1,9.37,1078.41
30.03,55.16,313.29,9.97,1.56,-6.38,597.41
43.55,59.58,304.31,-4.41,3.86,-9.51,1702.84
41.23,84.38,219.38,1.8,9.34,0.62,1923.51
43.66,86.98,288.06,-4.36,-2.19,4.24,282.58
35.52,83.05,150.01,-7.76,1.13,4.33,1201.15
33.21,63.36,336.36,1.35,3.98,-3.22,1623.15
24.42,60.9,260.08,-2.93,1.85,5.08,1646.06
29.85,71.97,274.07,1.66,-2.26,6.85,880.9
33.02,78.87,282.93,1.17,2.48,2.2,450.75
22.66,89.73,262.27,0.85,3.0,-2.28,774.28
26.62,55.26,497.15,-7.53,1.7,2.27,1502.31
37.95,51.97,271.94,-1.2,-5.9,7.24,1987.56
42.07,77.77,331.55,6.24,0.12,8.01,1108.58
49.95,83.29,266.47,-3.7,7.69,-9.37,390.25
47.99,83.85,184.22,-1.12,7.37,-7.55,83.87
39.28,77.14,332.71,-0.12,5.02,-9.91,1887.38
32.64,88.16,286.33,7.25,3.94,-0.15,966.07
39.09,70.44,289.85,3.11,-6.93,-1.27,1433.19
43.57,86.55,347.1,-8.0,-0.81,0.92,1320.36
23.55,88.71,165.04,7.3,-7.78,3.67,1781.74
32.3,83.89,235.72,6.64,6.35,-2.68,532.18
45.19,62.39,197.82,5.07,-4.18,-5.83,883.44
31.51,57.85,276.09,-0.68,5.34,-2.1,1827.24
37.16,71.92,311.36,5.15,6.29,-9.82,1171.15
37.63,68.12,343.26,-0.43,7.85,6.59,142.72
25.53,85.11,240.92,4.73,5.08,-2.33,388.97
30.87,54.0,307.24,7.6,1.29,2.46,474.43
30.04,60.31,333.41,7.81,1.96,-3.51,1987.57
20.79,95.86,286.67,-0.91,-3.59,2.3,448.28
20.73,53.8,198.55,7.19,-6.46,0.81,1739.37
44.95,62.83,75.22,-7.97,-7.39,-5.83,156.19
28.19,65.49,343.99,-7.96,-6.36,2.51,363.44
35.54,74.9,347.51,0.97,8.68,-7.81,1744.11
28.96,56.33,278.47,3.04,-6.71,-0.38,1797.87
48.22,84.42,327.4,-6.94,4.47,4.4,352.39
27.78,67.9,190.07,-0.56,-6.31,0.98,459.7
32.89,86.68,199.22,-8.11,9.51,4.93,1061.13
46.18,68.71,340.58,2.04,-2.67,-4.54,105.37
45.26,61.0,177.05,7.1,-1.76,-9.02,1890.57
25.58,55.67,75.22,4.75,-1.91,-8.88,724.15
44.08,50.15,234.11,-2.43,6.33,-4.63,978.58
33.75,71.29,267.92,9.88,-5.63,-1.85,210.1
34.49,54.29,270.76,6.36,17.79,18.23,65.09
24.0,65.67,208.4,6.3,3.14,5.15,935.63
22.42,73.57,334.12,3.39,-5.59,6.79,243.33
41.84,61.03,333.02,9.79,-8.69,3.87,1260.64
34.89,57.01,228.41,6.43,5.5,-0.74,2723.02
33.11,80.99,236.86,0.39,-5.62,-4.71,63.34
41.89,87.87,290.5,-2.66,7.78,-1.44,1224.45
42.97,54.02,282.6,3.64,-7.4,-4.53,1631.25
24.77,56.22,226.46,1.8,2.33,2.49,878.86
38.31,88.4,232.85,2.59,3.84,6.36,1919.41
24.06,51.51,219.61,-3.14,3.15,0.36,222.39
42.54,89.11,197.08,-1.43,-3.68,-9.08,645.97
39.71,50.19,241.63,1.16,7.51,8.79,460.15
48.7,84.95,287.29,6.79,5.4,-4.11,1992.38
22.07,62.29,298.39,5.26,0.2,8.29,588.35
21.71,87.54,305.77,-7.63,2.07,6.26,775.85
28.47,62.68,224.95,-5.09,1.33,-1.74,1695.23
27.85,76.17,302.93,-9.47,8.93,-8.87,1859.93
27.41,53.2,151.3,-9.84,7.93,8.95,1875.49
47.19,59.69,245.41,-5.51,-5.29,3.18,1116.34
27.49,80.95,308.78,5.99,-4.74,-5.01,1326.6
28.16,71.15,276.01,8.09,9.63,0.67,698.34
42.78,44.56,244.81,-2.16,-5.27,2.71,1214.32
33.49,67.15,278.93,1.26,9.07,-5.47,605.5
43.3,84.79,331.39,4.12,3.0,-8.13,1492.06
21.96,67.96,263.28,9.06,-9.0,-4.65,614.42
34.63,89.17,309.96,8.26,-3.29,-9.05,-110.99
21.01,88.39,346.15,-8.86,-0.48,-8.6,286.97
21.88,63.17,291.11,-5.04,6.66,-6.87,1143.61
47.19,85.44,264.67,-9.02,-3.43,-6.83,1041.35
24.18,83.9,157.5,2.33,-3.79,-5.04,527.43
35.97,58.43,224.9,4.21,8.41,8.75,56.0
32.33,74.97,263.09,-3.83,-8.42,1.52,297.07
30.42,52.91,309.44,7.08,1.03,-1.55,1935.9
47.0,83.47,237.62,-0.94,0.08,1.28,1882.61
20.65,56.98,342.01,9.97,-8.85,-9.89,238.6
39.91,52.83,204.36,-9.99,-8.24,7.89,749.72
48.9,66.01,298.91,-7.81,-2.36,0.65,930.25
36.81,73.08,233.81,-3.96,-7.32,-0.97,956.14
48.1,84.2,247.2,-9.49,-0.44,8.83,597.64
21.57,88.97,310.5,5.65,2.18,4.61,1825.91
32.56,67.58,209.24,-8.94,3.83,-3.25,1816.98
27.8,52.42,169.36,4.98,0.93,8.72,37.86
41.92,79.96,254.05,-8.95,-2.41,7.04,1300.0
49.44,72.61,255.76,-4.95,-7.4,9.09,148.72
27.7,67.92,309.43,6.83,-5.05,-8.08,1195.0
39.63,62.37,343.66,9.02,-1.61,9.11,1733.79
25.94,70.1,161.06,-1.71,8.48,0.86,1299.06
36.96,63.55,268.34,9.4,-5.95,3.44,937.86
33.92,80.28,286.26,2.54,-1.73,-5.76,1915.79
49.16,71.76,347.16,-1.68,4.65,-7.19,1493.2
38.26,85.07,338.52,6.06,4.1,-8.41,498.62
30.49,71.74,292.49,-4.09,9.31,-1.55,773.87
23.42,59.53,254.36,-4.68,-6.18,-5.57,1519.75
24.54,84.04,182.3,3.13,-9.67,-8.37,38.63
26.76,72.29,226.84,-2.19,-3.55,9.1,127.93
27.53,58.27,267.02,-7.28,-7.01,4.67,1718.85
45.52,74.94,295.04,-8.66,0.97,0.36,85.89
36.84,64.31,277.08,5.76,7.98,4.87,1357.03
35.7,83.78,292.82,3.52,3.76,2.23,637.81
23.44,68.13,235.83,-1.76,-7.28,-6.44,1651.78
45.8,79.06,295.53,7.92,-7.68,2.67,1694.69
41.68,53.82,178.75,-1.78,8.23,3.62,1906.68
22.03,65.84,182.52,4.21,-0.25,-5.25,191.1
41.24,89.33,182.57,8.18,8.47,-3.6,845.69
36.31,82.34,328.17,6.81,4.72,-2.33,1147.92
22.45,56.4,165.21,0.22,9.87,2.05,1832.11
33.75,61.11,310.3,3.61,7.42,-7.46,533.03
34.54,63.19,196.71,-1.73,-1.72,4.87,143.25
24.97,76.01,243.69,2.94,5.16,-3.08,403.53
48.37,80.28,333.19,-4.85,-0.58,3.84,991.16
45.5,79.98,267.19,-1.31,-5.34,8.66,1362.1
40.07,70.39,192.02,-5.81,-5.18,7.4,1381.35
33.87,82.43,206.82,-9.24,-2.05,4.75,149.33
32.35,67.48,334.09,1.77,-7.77,-6.13,1522.82
39.53,54.96,235.43,7.29,-6.44,4.64,1320.48
36.36,72.58,267.4,-9.49,0.01,2.72,815.09
21.87,88.09,241.99,-6.08,9.08,5.45,1142.17
35.38,81.72,225.69,-0.8,1.55,7.38,1535.48
44.19,73.15,194.66,3.32,-1.83,-3.77,524.19
33.78,75.87,287.24,-6.58,-5.15,2.89,1880.07
21.56,87.22,293.65,-8.87,-6.08,-4.5,275.54
43.59,67.13,204.98,0.38,3.17,-3.07,1804.45
26.04,63.26,307.8,6.37,6.97,0.41,1481.72
27.76,89.09,320.91,-9.3,-2.02,-1.32,1321.04
24.94,84.54,334.14,-3.01,1.01,2.01,165.82
29.91,62.92,182.24,3.27,4.13,5.18,1838.01
42.7,68.55,210.78,-7.39,-8.83,2.1,590.66
35.58,66.6,322.07,-5.28,-2.98,9.4,1491.22
26.15,55.96,189.71,0.71,4.6,4.76,1769.6
46.33,88.31,150.69,9.06,3.69,9.7,488.57
46.39,66.17,324.17,-4.25,-8.93,4.87,1829.2
46.12,85.01,215.29,-0.25,-5.24,0.16,1223.88
27.16,57.57,232.9,-2.0,3.6,-1.78,1318.06
33.54,71.91,239.27,7.95,-4.57,4.71,1829.03
49.55,50.96,319.65,-8.56,6.29,3.74,1053.47
43.16,80.57,217.58,1.32,-9.41,3.38,881.3
20.82,73.24,328.46,6.92,-6.19,4.44,1266.46
21.96,75.02,273.39,9.76,-4.37,7.44,1108.05
33.92,52.07,255.46,3.97,8.51,-5.44,122.95
47.28,58.44,215.12,-2.4,5.93,1.3,360.98
36.16,52.97,198.74,-1.76,7.68,2.07,27.13
34.93,61.56,274.81,-2.97,-1.19,-4.14,216.33
23.16,75.1,239.38,2.07,6.45,9.76,1459.7
39.7,72.65,332.1,4.79,7.07,5.71,9.42
44.66,74.49,248.33,6.39,-2.0,-3.57,608.81
31.41,71.97,252.36,-1.67,9.89,-2.83,898.64
43.27,60.92,233.34,4.33,7.02,4.37,1875.62
48.93,59.78,307.85,8.32,9.48,-9.77,654.01
26.11,55.48,234.97,8.42,7.33,-0.72,1566.26
35.7,83.96,203.87,4.08,5.52,-3.14,817.53
28.61,74.66,322.41,2.74,8.88,7.08,196.98
43.79,57.46,269.37,0.63,-1.6,5.83,197.69
37.33,57.09,268.3,-6.34,5.67,-3.36,864.87
39.04,84.92,272.16,-7.53,-5.74,7.3,115.77
43.94,79.71,293.77,-0.29,4.66,8.27,1143.24
31.88,76.38,212.61,-6.81,5.71,1.05,987.3
47.45,66.27,156.77,1.54,4.33,-6.82,1405.07
35.99,60.48,312.12,2.91,7.0,5.41,371.24
24.74,89.18,175.78,0.51,-1.73,-3.61,1185.86
40.88,81.89,294.36,-9.27,0.9,0.55,349.04
43.8,62.07,166.46,-8.85,-9.79,-9.09,1444.47
29.5,83.9,225.06,-7.73,-7.08,0.0,614.32
45.72,80.36,162.61,-6.93,2.88,-2.39,1228.83
47.18,61.88,254.44,9.8,1.25,3.72,1765.35
28.31,67.06,280.63,-3.11,-6.05,-9.18,976.47
49.51,57.44,184.29,-4.16,-5.13,2.5,384.58
24.22,54.44,224.33,-8.95,-3.12,5.44,1772.25
26.06,78.91,336.05,-9.01,-8.69,-19.4,717.16
25.53,60.7,238.48,3.04,2.19,5.0,1460.51
46.82,82.8,310.51,-6.49,-8.61,-7.4,640.19
39.63,89.82,335.44,8.38,5.2,3.96,596.43
53.04,53.06,344.87,6.01,-4.75,-0.89,1284.06
33.21,68.92,329.66,-5.39,3.44,1.04,312.62
38.46,82.08,213.48,-0.28,-7.53,-3.25,1733.95
22.5,81.56,342.51,-0.83,9.96,-5.09,775.25
46.47,80.4,312.48,-3.03,-8.39,-8.58,38.55
44.11,63.96,317.44,6.35,4.83,7.29,610.87
35.16,68.15,153.03,-7.81,0.83,2.21,1569.93
49.01,73.8,340.85,-1.69,-8.28,9.66,1718.72
32.53,88.96,305.62,-1.44,-9.46,7.01,1135.76
49.52,63.1,303.59,-0.63,-2.75,7.39,588.22
40.04,86.93,166.3,7.23,6.04,1.96,1055.71
39.04,60.77,196.51,-5.64,-9.18,-8.38,1672.75
24.98,89.56,342.45,-7.94,4.09,8.27,632.08
46.46,76.81,250.14,2.36,3.11,-7.64,770.87
32.82,68.54,229.57,-6.52,-4.69,0.34,1079.39
24.87,74.54,317.99,-8.5,-8.45,7.14,1774.28
20.38,60.9,167.47,-1.47,8.31,-0.55,1164.3
36.79,60.97,233.39,-5.61,-3.99,-6.69,415.23
35.82,54.54,225.14,-2.78,-7.77,-2.54,178.21
41.58,54.56,219.97,-4.81,3.63,9.77,190.03
46.71,63.91,211.54,-8.15,-5.67,10.0,1900.5
22.38,80.51,192.01,1.21,-0.49,4.22,1644.82
41.94,74.32,184.58,-9.46,-8.99,7.76,1531.71
25.62,54.1,278.08,9.33,9.86,-9.12,992.73
45.75,84.09,333.88,-3.17,-1.05,-4.48,1345.08
44.57,74.05,251.77,3.9,9.98,-2.62,254.66
36.22,88.43,209.59,6.21,-2.29,-9.76,1241.79
41.31,76.81,181.83,-4.42,-3.04,-2.46,1621.56
29.43,57.01,316.03,4.97,8.29,-8.14,124.28
34.14,68.95,344.3,6.65,-3.41,0.35,592.3
44.65,75.94,219.83,-5.17,-1.36,-9.91,220.56
33.78,51.13,208.19,9.85,-8.44,-4.59,520.45
30.73,50.6,270.3,-9.59,9.11,7.33,1545.05
34.83,55.18,305.07,-5.66,-8.3,-5.74,664.1
44.85,60.07,241.08,5.6,5.42,-8.7,1379.37
30.06,67.18,276.01,-6.12,0.77,-5.01,1546.61
25.21,69.5,293.31,3.97,-8.77,6.55,1633.28
41.36,55.52,342.12,7.11,-9.97,1.74,1746.75
44.78,76.94,183.01,-7.95,-6.75,5.44,1195.27
23.02,73.85,349.48,-0.52,4.84,-9.99,561.28
27.2,61.78,228.43,9.42,3.73,-0.56,301.12
24.26,50.55,294.64,-1.77,-1.23,-4.69,1007.42
30.44,53.11,264.48,-5.64,-5.23,-3.28,207.11
33.51,65.67,247.33,0.28,3.6,1.97,1821.45
42.46,56.16,289.62,3.0,2.17,7.49,884.96
39.53,65.07,229.15,-0.84,4.53,-6.37,1745.97
38.63,75.13,175.22,1.34,-2.68,5.36,1418.54
30.57,71.89,247.78,-1.67,9.74,-9.02,1714.44
45.24,59.25,254.38,0.5,-8.66,-3.47,1767.92
34.14,63.75,190.38,9.05,-8.41,-5.62,106.59
49.37,74.56,337.12,-0.0,8.34,8.31,1450.52
39.02,84.43,195.5,-4.94,2.95,-6.44,453.1
23.79,80.13,231.85,5.17,-3.47,1.57,1978.59
40.29,72.14,180.99,-3.25,5.24,-6.7,1556.81
29.75,64.49,257.16,6.32,-0.94,-0.53,7.53
40.59,64.6,211.53,-8.86,-9.58,-1.73,1854.83
22.09,85.18,247.85,-3.36,3.02,-9.17,584.61
25.25,51.57,194.92,-8.11,-5.14,6.52,833.31
45.67,89.52,160.76,-8.29,-7.69,5.6,1224.57
26.82,76.58,305.85,3.17,-5.49,-4.44,1832.62
45.11,77.25,278.22,-2.29,-0.48,2.28,1854.65
28.38,51.52,218.15,7.43,-9.0,-2.75,1126.94
39.29,74.22,159.5,-17.14,12.9,3.94,633.45
40.82,69.39,323.12,-4.09,1.2,3.85,558.38
35.38,54.23,183.96,4.42,-4.14,-8.19,728.79
29.16,61.12,336.15,2.48,3.74,6.88,361.03
26.38,85.61,245.72,5.99,6.08,-6.41,1339.67
21.0,72.0,218.08,2.87,2.28,-6.52,1055.6
29.12,66.54,298.35,-6.66,-5.95,4.67,1546.93
39.59,52.91,325.37,3.41,-7.79,-6.33,188.22
48.15,78.56,224.14,-2.17,7.2,-7.55,799.81
46.14,78.11,231.47,-0.74,-5.31,-3.29,479.73
42.98,74.56,236.63,8.43,-9.6,6.77,1070.37
43.65,70.41,334.46,-2.8,2.86,-6.46,936.49
39.95,67.35,288.51,2.24,-6.94,-3.22,899.13
27.81,73.73,199.53,-2.73,9.82,-4.27,631.31
47.22,59.34,187.0,-8.11,7.39,-2.88,1453.69
40.12,87.65,196.07,-0.93,2.17,4.29,963.14
36.81,73.55,202.71,1.94,6.68,-1.89,404.49
23.33,62.45,196.04,-1.85,-0.59,5.19,1094.89
33.41,67.99,281.7,-2.19,5.77,2.81,1193.34
33.81,82.23,173.19,6.41,2.93,-2.78,42.76
45.94,56.46,227.47,-9.41,-9.43,-1.36,407.56
36.4,61.71,275.01,-0.42,9.82,-19.34,484.81
31.41,77.18,208.17,6.24,7.22,0.7,496.15
49.3,62.62,163.05,8.41,9.07,7.37,477.69
23.32,81.7,166.36,-1.75,4.63,8.66,543.28
32.68,55.22,175.19,7.78,-1.76,4.35,525.45
21.26,80.51,317.17,-6.02,-5.86,9.78,1768.14
42.2,52.73,281.57,-5.57,-6.4,1.93,639.3
47.54,50.5,162.9,6.92,-7.1,-9.2,699.53
28.4,85.93,228.21,8.07,-5.59,0.1,532.35
45.75,73.25,205.72,-5.54,1.01,-5.4,1935.15
28.77,64.07,265.61,-8.81,3.67,-3.33,1070.98
47.32,59.3,254.56,-8.19,-3.72,-0.2,1221.09
53.04,74.68,246.22,-4.77,0.97,-4.1,1470.97
44.15,70.36,212.9,5.23,-3.17,-3.81,667.43
20.54,89.66,177.56,0.2,3.93,-1.96,1937.56
48.88,89.33,298.48,-0.89,9.77,-4.27,304.65
41.8,75.4,325.97,1.68,3.78,-6.61,915.63
53.04,67.71,338.83,7.8,-8.82,5.31,290.88
44.88,69.65,161.72,-8.19,-0.46,-2.1,1580.75
28.45,77.3,297.98,3.89,5.41,6.64,214.64
46.18,54.06,295.3,8.54,0.84,7.65,1107.8
23.38,63.13,339.42,-5.73,9.02,5.02,209.61
41.11,53.01,200.58,6.76,-8.9,-2.07,905.32
36.22,52.93,298.44,3.96,-4.18,4.43,560.62
22.9,57.83,160.93,-9.71,-5.59,-6.9,1806.59
27.26,69.41,276.25,-5.37,5.35,3.22,106.19
20.37,81.39,220.17,2.12,0.48,-1.88,1299.88
34.06,69.42,303.78,0.05,-7.23,3.11,1390.5
29.04,63.42,322.66,0.56,-4.29,5.1,1777.96
37.95,53.29,222.96,-5.36,0.45,1.25,1755.46
28.92,72.01,255.12,3.5,9.92,2.85,1954.11
29.0,60.85,173.48,-4.67,-2.71,-5.73,507.82
42.3,74.6,233.38,-2.21,-6.86,1.85,549.65
21.44,89.09,222.16,-2.62,-0.06,-0.79,794.59
47.09,54.45,186.62,3.44,-3.8,-1.44,1075.15
45.57,58.49,328.9,-8.19,1.32,-1.79,734.28
40.03,68.92,179.62,-5.89,-0.67,-3.78,1480.59
37.8,88.74,277.15,-4.72,-3.68,-15.47,17.09
46.77,80.87,328.03,-7.83,8.29,3.99,35.31
25.56,85.93,332.39,-5.85,-5.99,1.16,1432.11
22.37,63.35,308.65,2.14,6.42,-9.4,1766.24
27.19,89.68,185.23,4.64,8.99,-9.03,1553.09
43.84,54.11,313.49,3.21,-2.53,1.4,234.18
21.04,52.12,205.31,-0.5,-7.73,6.93,1869.95
37.48,84.22,334.48,-8.95,6.44,-9.12,1043.83
49.86,87.09,291.82,9.18,4.02,0.14,1484.59
45.67,53.62,307.05,-6.64,-5.75,7.02,402.09
35.64,54.54,167.01,2.81,18.08,6.19,1097.59
21.91,51.33,266.55,8.26,1.56,-4.48,660.12
44.94,54.18,314.23,3.96,-6.6,8.4,1949.52
37.97,58.38,322.32,18.99,-5.66,-1.22,948.39
23.45,88.8,155.73,-3.68,3.8,2.14,1511.15
22.82,76.71,337.83,-9.4,7.74,0.15,1206.46
47.29,81.14,158.67,2.26,1.35,-6.97,188.6
40.08,81.05,272.9,2.26,1.49,-9.15,1085.86
44.88,71.4,288.68,4.51,2.39,0.05,1080.43
46.37,81.9,171.47,-9.78,-4.52,4.7,1431.42
37.15,73.83,159.6,6.36,5.17,-6.46,643.82
35.52,62.58,306.98,4.77,3.25,3.83,1721.3
32.91,72.44,226.93,-7.18,6.78,0.93,1245.21
29.51,71.34,171.42,-3.05,5.37,-2.84,78.68
33.04,82.94,302.53,2.77,2.77,3.29,1413.67
43.22,89.27,319.83,-0.08,-6.78,-6.16,1813.93
38.06,66.44,267.48,-7.7,8.38,-0.86,1366.29
46.78,80.54,182.25,-8.25,-2.66,0.99,759.99
33.3,53.99,153.04,5.63,9.29,-0.83,1181.3
38.21,81.07,290.16,-6.88,-1.96,-2.05,342.8
38.94,64.86,260.03,-6.56,-7.08,4.82,1202.51
37.75,51.58,280.16,6.62,7.7,3.12,1001.99
41.08,64.53,312.64,2.24,5.9,2.79,52.32
27.12,74.43,236.85,2.09,5.73,7.84,643.78
35.37,54.77,174.9,-0.41,-8.21,9.87,382.49
23.13,86.96,338.0,1.38,7.59,1.34,781.3
31.54,53.11,259.05,2.04,1.93,-3.03,483.66
34.63,87.2,273.06,9.36,-0.59,5.58,1668.5
39.57,78.29,336.68,-5.54,8.26,-7.16,1395.37
48.52,63.19,336.32,-5.71,3.32,0.26,1480.23
38.02,65.63,264.42,-8.86,-7.34,0.49,721.73
42.31,79.63,209.52,3.16,0.39,9.67,6.89
35.19,74.06,349.42,0.98,2.73,9.82,438.31
39.02,76.87,286.16,-7.78,7.97,5.98,1510.6
22.13,65.57,231.69,-2.71,-4.4,-0.54,1205.67
27.63,69.51,261.97,-6.43,5.88,0.94,1077.16
30.86,89.59,233.17,-3.37,6.0,-3.61,561.04
34.17,58.56,327.66,9.03,-7.44,6.6,151.48
21.37,66.71,246.5,3.67,-9.66,4.93,1569.73
24.2,61.67,314.71,-9.85,1.63,5.43,77.31
28.3,80.6,75.22,-4.95,5.79,-7.23,118.27
49.15,80.56,314.87,-13.18,-2.92,5.06,589.87
29.94,61.7,294.44,4.3,6.27,0.75,1145.87
34.46,53.26,320.98,-0.61,2.45,-7.51,1984.45
25.88,50.46,227.45,9.88,3.07,-2.63,181.28
38.32,67.1,172.93,4.67,-9.44,-8.25,946.34
28.42,66.41,318.49,0.36,-8.23,9.18,1203.51
26.21,89.54,249.63,6.09,4.5,5.03,1646.21
35.5,68.79,175.48,4.1,5.26,2.41,1379.23
20.17,60.26,173.06,-5.12,0.84,-5.9,1615.48
20.23,85.65,181.85,0.61,1.8,-3.32,1044.94
26.57,69.64,300.19,1.12,2.29,-7.11,867.94
21.1,73.97,292.17,-0.98,-7.9,0.72,1237.46
23.24,53.83,190.76,-6.42,3.36,6.41,1801.74
30.17,65.32,319.38,-5.53,-0.43,-9.62,1101.69
44.08,87.77,206.26,-4.38,2.05,-7.93,1211.19
37.16,73.58,308.6,-9.79,1.26,-5.41,675.95
35.38,63.78,247.76,8.34,5.26,4.28,1192.24
28.8,44.56,296.31,3.72,-3.63,7.88,1255.53
47.95,86.42,497.15,3.79,-2.53,5.06,1506.85
31.91,60.96,219.43,1.45,-2.17,0.5,1144.35
22.61,70.2,318.27,3.79,5.25,-7.9,395.1
38.51,88.35,157.06,9.64,-1.38,5.1,1163.85
23.42,56.9,344.95,-2.3,-6.46,-7.89,595.74
30.36,78.79,279.64,4.25,9.66,-3.05,174.65
35.22,74.58,236.5,-2.81,-0.13,-3.84,1650.87
46.23,77.19,275.61,7.09,-7.82,-2.82,132.14
34.81,64.05,174.55,7.16,3.41,-3.41,1263.41
41.07,62.56,252.81,8.05,4.78,5.38,1976.99
49.78,77.37,347.02,-9.89,0.0,-6.57,175.24
23.94,58.62,197.05,-4.04,2.93,6.92,440.26
28.24,66.79,294.46,-7.32,-6.55,7.17,1521.61
31.84,57.53,236.99,-0.92,-2.64,-0.18,193.79
32.65,50.33,280.49,-0.09,-6.76,-7.88,1665.45
32.33,88.8,190.98,-4.88,-2.26,1.51,0.54
47.23,67.27,244.09,4.47,1.26,6.42,1779.89
41.42,88.77,346.02,-4.6,-1.15,-4.21,133.65
38.24,55.61,189.06,7.08,1.86,6.75,1843.96
29.28,73.49,277.29,-6.45,0.04,3.54,1729.1
44.71,58.04,265.12,-2.66,-3.64,9.74,1079.13
48.65,81.6,263.01,2.44,-7.13,6.49,1555.9
44.64,81.35,273.02,2.11,-4.95,-5.97,149.75
20.05,54.5,250.45,-8.44,-5.99,-1.02,270.3
39.09,86.48,153.39,6.93,4.15,-7.93,738.57
21.53,57.79,330.02,1.96,6.4,-8.61,1074.92
27.73,74.52,315.4,7.4,4.41,4.12,1736.43
21.79,89.43,184.83,7.35,2.87,8.26,1085.36
38.11,85.3,232.65,0.92,-3.84,9.47,1330.41
40.6,88.26,304.11,8.22,4.22,-4.59,1359.77
23.43,63.7,346.01,6.97,2.1,-5.96,1755.14
31.52,54.22,340.23,9.16,-9.06,1.2,1553.51
33.69,57.53,329.87,7.01,8.15,-5.98,1954.06
31.07,70.02,181.67,6.42,-8.4,-4.08,40.03
23.63,81.73,332.9,-0.61,0.05,6.74,415.66
32.57,56.01,325.69,-5.76,0.26,6.21,1860.89
42.54,76.39,225.39,8.21,6.74,7.9,1584.44
22.13,62.94,228.9,4.45,8.26,-0.36,534.73
22.41,63.65,241.98,-4.37,8.79,1.28,1948.49
30.64,76.48,281.24,-3.18,1.39,5.41,1739.76
48.25,68.68,202.17,3.72,3.58,-5.21,129.31
40.06,82.48,154.59,-0.44,-8.23,6.46,1622.62
40.36,56.24,178.25,-8.37,-0.24,-9.65,1568.98
53.04,81.6,238.02,-7.17,7.96,5.95,442.31
37.81,52.57,206.4,4.91,-0.89,5.52,1338.49
20.3,57.76,302.9,-3.43,-8.61,-3.96,1940.45
39.08,76.25,171.34,0.15,-5.99,4.56,1351.74
47.4,84.2,333.49,5.33,-1.41,-5.72,1627.53
38.38,60.11,329.07,5.02,-5.25,1.52,198.77
46.21,63.09,331.75,-6.66,-2.15,4.01,1454.92
41.72,71.48,297.92,-8.03,-3.34,4.29,409.51
23.62,58.46,171.4,1.82,-3.62,9.66,143.71
47.07,82.45,237.63,4.83,-8.18,-6.36,1104.15
21.99,80.95,176.28,-7.02,7.65,-0.38,1501.22
36.02,55.81,347.54,-2.56,3.85,7.6,1093.49
24.26,68.55,216.61,7.41,2.47,1.23,1863.19
20.35,80.99,267.07,8.88,2.13,7.53,1391.33
32.66,63.49,305.88,-0.92,-2.07,-1.32,235.15
28.85,75.32,334.12,-8.41,6.47,5.91,1869.04
34.58,52.01,301.11,-4.85,8.6,7.4,305.78
37.32,74.35,284.9,-5.34,-9.89,6.93,1516.51
21.31,56.11,243.2,-5.22,-8.42,7.43,297.09
23.69,83.22,271.08,-0.12,3.5,-5.61,1997.16
36.76,64.22,168.83,1.66,-5.28,-1.22,664.38
53.04,61.26,326.78,-7.55,8.23,-6.51,991.86
41.88,83.64,258.76,7.79,3.35,-6.39,933.68
39.57,52.01,158.03,2.4,-2.63,-0.24,203.79
45.37,65.86,333.98,1.95,-1.69,9.2,988.03
40.77,64.8,247.86,9.75,3.82,1.84,299.01
32.9,61.39,323.72,2.56,-7.18,7.08,1603.96
40.19,86.47,321.38,8.58,7.67,8.74,1916.63
28.26,80.04,313.15,-4.27,-9.9,-8.27,1616.12
29.19,52.56,162.28,-5.2,9.58,-6.76,862.13
43.67,78.59,199.41,0.33,-6.65,-4.18,4.74
33.39,71.09,325.11,0.17,4.84,2.34,73.29
43.95,86.03,329.8,-5.47,-9.2,-8.77,990.07
44.67,62.52,241.61,3.99,-1.37,5.73,1358.97
45.73,72.97,238.01,-9.41,2.61,-8.72,1639.03
47.5,70.03,185.03,3.81,-8.6,-6.83,1199.06
32.93,69.58,343.68,-0.86,-1.13,-2.37,1956.63
29.57,68.24,192.63,3.78,-3.94,1.15,987.56
37.47,58.23,188.19,-0.46,-0.04,7.63,1200.06
31.14,80.23,282.15,9.55,0.09,9.27,460.2
38.03,68.05,198.57,-3.31,5.7,7.69,679.32
41.17,88.34,337.75,9.65,-7.53,-7.86,1366.26
40.65,60.43,152.18,-8.7,-8.35,2.62,1203.28
31.24,77.31,151.15,3.68,-1.96,-1.17,739.3
25.01,87.63,250.98,-0.92,7.75,-7.48,223.96
32.92,76.54,247.61,6.44,7.11,1.1,685.23
24.28,84.85,182.67,5.79,1.2,-2.87,88.31
46.7,83.1,248.9,-14.59,-12.21,1.25,1161.53
30.38,64.4,232.33,-8.11,6.11,-8.11,646.03
24.63,74.0,328.07,6.45,-4.44,9.58,759.7
20.76,56.25,151.85,-5.72,-6.6,4.52,1150.18
39.37,71.42,345.25,-9.49,-3.98,-4.39,1162.58
39.11,59.22,274.88,-5.65,-5.46,8.35,1176.69
30.22,79.75,180.37,-0.41,2.45,8.96,983.18
22.15,71.12,159.35,4.84,1.7,6.21,976.24
32.29,66.45,257.62,-5.63,1.97,3.19,1642.44
29.34,60.75,196.98,-7.74,-6.21,-2.47,935.11
40.31,89.95,210.23,2.92,5.84,-1.31,1072.06
38.17,52.87,199.03,9.68,-1.33,-0.9,1976.46
30.94,51.74,280.03,2.02,-0.55,8.98,362.1
26.54,58.69,260.71,3.82,9.94,5.2,1452.84
49.64,88.84,165.59,1.22,-4.35,-4.16,946.37
33.62,89.17,255.31,5.65,-2.12,2.49,1661.08
40.65,76.2,308.24,9.52,3.53,1.88,808.07
24.22,85.2,166.24,0.88,7.61,6.24,605.98
34.57,58.56,327.95,-1.66,-7.46,-8.09,415.57
20.83,88.88,265.66,7.21,4.7,4.03,1744.47
35.16,55.71,340.12,9.39,8.37,-3.38,1436.66
48.92,54.05,179.63,-7.42,-1.54,-7.41,153.8
31.53,54.49,348.71,1.56,-4.27,4.64,1426.98
21.17,72.93,278.85,5.85,3.55,-3.37,70.03
20.93,81.24,263.5,0.67,-5.08,4.6,363.25
31.64,64.67,253.06,-1.82,-2.31,-6.75,1185.6
24.8,89.12,154.73,3.1,7.94,9.72,927.02
20.7,67.38,337.93,-4.6,1.81,6.07,1680.97
42.69,56.02,278.8,-3.02,-8.1,-4.22,1215.78
33.76,68.64,168.33,9.85,-3.41,4.81,1929.95
28.68,77.16,154.19,2.73,2.55,-7.28,1710.37
47.0,83.29,160.16,7.46,-0.37,3.07,680.43
23.48,68.35,271.88,6.16,3.21,-8.81,1668.3
48.68,73.74,272.8,3.05,5.23,-3.33,1739.87
29.42,60.69,249.93,6.81,-0.39,9.57,1939.45
46.65,75.84,211.35,-4.26,9.74,-7.58,25.13
38.09,89.44,256.35,2.74,8.29,1.95,1749.49
44.8,51.96,253.26,1.81,-8.8,-8.59,139.79
49.52,85.46,153.88,2.45,-4.67,3.39,1056.23
28.65,72.49,206.49,-6.63,-3.99,-4.43,829.33
48.83,44.56,160.64,-4.46,-6.31,-3.8,1839.76
31.68,88.2,330.03,-4.27,-3.76,-3.24,810.3
31.57,69.33,295.04,2.04,-1.5,-5.9,1192.09
30.21,63.27,349.22,9.45,-8.97,8.83,1383.76
36.24,57.26,210.43,9.08,-7.45,8.12,38.06
24.62,59.78,325.7,-5.46,-8.08,7.4,1181.86
36.61,83.31,270.61,-3.9,-9.07,-7.87,1035.98
36.25,74.58,240.63,-9.28,-0.37,-5.33,1188.02
42.86,86.53,194.51,-2.02,-3.32,2.24,151.49
45.01,59.28,297.68,6.69,8.71,9.41,111.12
33.21,54.85,330.83,8.32,-7.94,2.1,355.09
29.07,50.24,197.06,-5.27,8.52,-3.46,1739.0
27.78,70.31,185.08,-4.68,-8.27,6.35,712.94
25.84,89.93,289.24,-5.58,2.38,-7.29,868.07
21.73,77.8,345.39,-3.0,-5.05,7.63,780.33
30.27,62.34,299.99,6.1,6.54,9.49,1428.74
28.11,85.07,206.92,2.94,-8.77,9.35,518.95
48.99,81.27,233.99,5.72,9.05,-7.05,136.79
36.73,50.62,226.86,1.66,-9.05,0.99,756.35
30.42,82.67,320.42,-4.85,-5.18,1.7,1455.67
37.41,62.02,304.27,-5.44,-0.72,-6.1,1829.94
24.18,95.86,267.8,-9.82,5.12,0.94,101.64
33.32,59.05,204.99,5.62,9.02,2.93,1620.99
38.79,68.74,337.6,6.94,-1.44,-3.42,132.36
34.67,66.99,280.66,5.37,5.15,-3.69,661.32
32.05,61.56,344.1,-8.51,4.54,-8.8,44.6
49.82,56.89,266.02,5.24,1.42,9.14,1823.08
46.41,80.49,314.24,-9.08,3.82,6.07,1413.58
38.7,89.6,312.62,-7.89,-9.24,5.19,738.27
37.08,81.11,217.47,-1.19,-1.17,-9.56,754.91
38.62,61.84,342.8,-0.48,5.72,2.49,1279.69
26.04,59.79,154.39,6.32,-0.52,-6.39,179.3
31.85,58.71,303.74,3.59,7.47,3.23,290.1
21.18,55.47,343.11,-6.93,6.67,2.42,1694.45
34.27,72.05,217.78,-5.48,7.27,7.04,404.63
36.29,74.22,279.62,-4.29,-7.4,-4.89,1453.33
26.83,78.22,262.44,-7.53,-5.12,-9.45,451.61
48.92,77.21,302.3,-4.25,-9.41,8.28,176.29
47.28,61.69,323.24,4.57,9.66,8.17,1800.06
41.66,63.21,270.61,-5.17,-5.28,-0.88,1803.35
36.0,77.26,313.18,6.71,-2.66,-8.44,1210.62
46.1,63.98,212.46,-0.61,-4.5,-0.04,924.07
23.92,58.5,195.72,-3.54,-9.2,0.48,1105.52
18.85,64.97,236.13,-1.75,-4.77,6.43,816.25
23.74,60.88,285.55,4.19,-8.04,4.34,1514.35
43.83,53.53,187.45,0.34,-2.11,-8.58,1509.12
28.27,83.21,286.07,-9.85,9.34,4.11,1637.96
46.31,84.12,228.82,8.45,3.97,-7.29,1045.85
48.32,58.79,309.12,-8.68,4.14,-8.21,1602.68
24.46,52.59,157.37,8.77,-0.94,-2.03,311.44
33.88,79.55,283.6,-9.44,6.23,-8.45,60.27
49.43,58.46,279.96,5.42,8.17,6.59,1296.11
34.5,65.74,338.19,0.69,9.23,-0.74,210.95
45.91,52.57,292.67,0.11,-8.02,1.74,1101.34
37.66,59.05,309.26,-8.54,7.59,1.54,1442.25
31.26,81.72,330.92,-5.23,-5.5,9.56,814.17
28.57,82.18,285.01,5.55,-2.05,8.32,87.75
26.1,58.28,208.03,7.83,-3.09,6.98,1774.26
42.85,63.44,323.95,0.58,3.5,-2.33,86.49
31.6,55.37,299.52,-2.93,1.96,-7.1,1809.51
35.34,52.97,234.89,-8.8,-7.82,1.84,105.26
34.77,89.69,292.11,3.64,5.66,-1.19,1470.32
37.32,76.22,323.54,-4.43,-1.21,-5.49,1849.69
45.97,71.68,345.13,-8.9,-9.96,-8.05,-110.99
49.42,80.62,340.47,3.32,-1.71,-1.28,1786.77
32.23,83.6,215.07,-0.29,0.33,3.02,1766.16
44.83,82.27,234.34,-9.76,-8.62,2.51,1020.82
42.94,50.66,171.91,-7.78,-6.98,5.48,1115.38
37.21,57.47,199.51,3.98,9.87,-0.67,1239.43
48.68,76.2,326.48,-8.73,7.42,-3.57,1791.9
26.01,65.03,222.17,7.32,-7.33,0.77,1676.32
23.28,89.3,274.11,-3.77,1.61,9.5,1565.96
45.62,76.62,283.19,-8.23,-2.42,-9.1,1351.45
33.17,88.26,306.37,5.2,0.87,0.57,1236.77
45.41,58.06,186.56,0.49,-0.59,-3.41,1844.93
46.79,84.56,210.96,-3.87,-9.04,-7.89,385.29
21.87,62.85,239.67,-1.88,-3.69,-1.31,385.45
46.5,89.58,222.97,-9.57,-7.49,2.82,1964.94
33.45,56.31,346.58,3.25,-0.22,0.56,1106.32
35.31,70.65,316.99,-2.68,8.15,-9.42,966.75
38.8,81.71,245.94,4.28,9.91,1.58,1701.19
47.79,67.31,325.85,6.59,-4.31,-16.49,1699.54
20.57,68.72,219.53,3.03,9.71,-3.17,353.2
34.31,89.45,307.17,5.86,-9.7,-3.76,347.14
40.63,67.01,194.74,2.62,4.59,7.17,1590.53
41.68,74.16,304.46,-1.63,-4.54,-9.05,1571.26
40.78,52.18,241.29,-2.2,7.31,-3.04,450.37
24.03,83.69,171.5,-7.61,6.27,-2.1,1683.02
28.98,75.93,204.65,5.59,-1.53,2.38,960.1
30.76,66.16,230.45,5.22,-0.53,5.78,939.98
44.13,50.65,299.86,-5.07,-4.7,4.55,1971.39
28.36,73.67,164.6,7.25,-4.22,5.05,1038.43
26.32,50.51,281.91,1.78,9.62,-6.15,274.09
48.72,50.05,293.2,-0.43,7.78,8.23,560.31
20.27,74.64,280.78,-9.65,-6.16,-1.72,667.36
49.93,57.56,302.13,-2.35,-4.49,-9.78,1916.93
40.3,57.68,185.63,2.81,-7.83,3.36,528.07
44.85,76.13,267.42,-8.21,9.78,2.08,860.81
28.84,52.15,338.23,-0.81,8.14,-7.48,1499.27
20.43,62.54,272.16,9.87,1.04,9.2,548.19
42.14,55.98,272.27,4.33,3.86,1.23,1403.28
45.02,73.21,297.29,0.94,4.96,-0.61,415.04
42.21,76.47,216.64,0.66,-5.92,-2.04,485.03
24.29,78.85,290.1,-9.12,8.69,-5.8,1972.66
42.6,60.21,333.25,9.15,0.53,9.06,737.89
43.07,53.57,152.18,8.56,-8.15,4.04,1459.37
39.76,53.15,497.15,3.65,-2.06,1.35,1680.13
42.98,67.05,193.72,-8.02,2.03,2.62,693.7
45.38,87.83,241.18,-5.84,-2.94,6.81,714.34
38.41,58.71,320.47,-6.32,3.98,2.71,-110.99
22.66,60.27,314.78,0.39,7.64,-7.71,1214.0
34.63,54.04,328.39,-5.84,5.44,3.95,723.5
22.33,74.22,338.08,3.92,2.85,1.3,1499.13
32.23,77.19,239.43,0.9,0.24,9.33,1727.41
32.21,75.72,281.27,-9.65,-4.91,4.67,470.08
21.98,84.45,228.1,4.88,-0.9,-3.12,48.71
30.46,69.46,220.14,-6.22,-4.14,-7.29,548.29
23.33,55.38,236.32,6.5,8.68,-0.35,1348.98
44.25,61.58,298.62,-2.9,8.15,3.59,1830.5
48.43,95.86,250.29,-3.23,-6.88,-6.45,1726.13
22.17,74.52,312.81,-9.76,6.45,2.99,444.34
48.65,71.24,299.04,9.75,4.06,6.51,1762.0
35.68,77.32,154.1,2.24,9.5,-6.86,1621.46
28.99,75.5,276.05,-1.55,-0.73,4.12,1468.8
22.31,85.25,237.31,-8.07,4.44,-8.63,1376.45
35.02,73.44,241.33,3.98,0.36,-9.84,1614.18
43.84,81.14,313.67,-4.35,-8.61,-9.35,1723.46
41.21,59.95,259.52,9.77,-9.06,2.63,1638.22
21.51,77.13,327.12,9.01,-7.56,9.47,243.7
22.19,86.09,292.56,4.71,-4.08,5.43,1444.31
32.09,65.43,260.57,9.42,-4.82,-4.91,1682.61
28.86,81.16,300.91,-7.89,4.57,-8.57,371.41
26.97,78.99,157.67,-4.4,4.32,2.33,427.6
28.43,52.38,155.42,-4.94,9.43,-9.94,1571.95
44.1,73.26,166.67,-8.56,-3.79,5.85,687.86
47.88,55.21,237.51,9.44,8.77,-5.14,799.4
32.15,88.69,197.09,-8.8,2.26,-4.02,754.32
47.18,82.46,346.85,7.13,-0.09,-3.12,425.67
29.64,54.39,258.46,5.36,3.36,5.27,1877.59
34.29,54.87,282.48,-2.48,4.06,-4.69,1611.72
26.78,73.78,205.76,-9.62,-6.56,-4.31,501.08
39.21,63.8,214.36,-9.88,5.03,0.82,-110.99
49.37,51.4,217.09,-5.92,4.5,-0.74,745.22
38.1,71.67,289.75,-0.12,9.95,9.11,830.62
30.73,65.51,244.74,-0.84,8.24,-4.73,14.18
39.43,54.04,253.54,1.71,3.69,-8.16,1774.3
23.69,82.08,268.4,5.44,4.25,0.82,1702.57
46.66,86.6,303.76,-2.45,8.92,-6.31,1700.33
35.09,80.26,168.07,-6.79,9.34,-1.73,1611.61
33.48,82.9,305.37,6.0,6.54,-6.26,1466.25
37.58,58.66,262.65,-3.35,5.35,7.62,1269.04
38.74,60.54,283.82,-4.26,-7.77,-3.45,1920.58
22.15,58.34,215.51,5.29,6.61,5.5,1423.46
40.48,80.6,231.88,8.68,-4.94,8.97,1260.49
27.26,87.92,196.23,8.3,1.28,8.81,1577.65
41.42,78.67,345.86,-7.25,-1.89,0.5,492.53
44.68,85.26,249.4,0.06,-3.09,9.67,1934.29
44.12,75.55,349.22,-18.73,-10.74,2.05,38.32
36.58,65.51,247.96,9.22,7.11,-7.43,1296.81
35.61,67.03,193.95,-5.7,5.38,7.77,154.19
24.29,53.01,251.49,-6.05,0.47,-0.63,1706.61
43.26,51.26,157.92,7.78,3.29,-6.95,1935.28
28.14,77.82,330.95,9.36,9.69,5.83,817.22
34.9,67.54,313.71,3.95,-2.05,2.49,1714.33
28.53,72.09,295.16,-7.58,1.02,7.64,671.44
24.01,72.31,271.97,-0.28,0.67,6.55,318.81
38.89,61.1,265.97,6.33,8.72,-3.6,553.3
21.63,69.04,349.35,1.45,-2.97,-4.87,603.68
42.46,68.83,205.6,-7.35,9.73,4.68,1261.34
29.53,65.54,305.94,-6.56,-3.91,1.47,1592.3
20.0,82.83,266.28,7.28,-7.82,-8.6,410.43
35.33,68.05,345.18,0.54,-6.17,-6.37,176.41
21.41,74.15,315.56,4.12,-1.48,-6.97,443.3
28.29,85.82,349.71,-2.54,3.0,1.8,593.08
41.21,84.65,267.66,0.65,0.34,-8.28,559.63
21.88,85.62,190.91,9.54,-2.47,-5.85,439.9
45.18,60.8,250.74,-3.41,1.24,0.91,932.0
20.11,51.4,292.22,3.5,6.78,-7.34,1711.97
27.4,60.44,304.87,-6.55,6.78,-5.03,2723.02
42.23,61.15,150.1,-7.57,4.52,8.14,1724.06
29.49,86.37,251.01,5.67,9.05,3.94,994.02
23.06,75.97,197.05,6.88,1.8,-3.86,1320.94
30.81,53.27,324.98,3.37,-9.85,7.55,1630.73
28.11,55.42,180.58,-6.84,-4.18,-4.99,608.65
45.28,56.23,283.29,-5.19,-3.44,1.78,1908.47
29.4,75.22,203.21,8.22,0.95,-2.63,167.47
43.67,79.42,221.31,-4.23,8.1,5.04,1055.33
46.76,84.39,338.11,6.38,6.76,-2.57,509.61
33.01,87.63,198.09,-4.28,-5.36,-5.02,815.89
47.3,58.07,169.0,8.79,0.39,2.15,897.73
31.32,62.39,163.86,8.29,3.18,4.91,1829.02
48.92,59.61,250.92,-9.13,9.75,0.73,883.16
22.68,64.35,278.34,5.41,-9.37,4.33,1395.9
40.61,86.59,215.46,-6.61,-0.72,-1.56,1903.53
34.81,73.0,288.05,-5.69,9.76,5.91,989.07
31.63,79.53,162.21,-0.8,9.54,1.7,816.62
38.98,69.6,321.47,1.53,-3.39,-6.08,1945.94
41.12,51.15,313.31,-3.48,-10.0,7.82,1655.35
20.13,52.57,347.1,1.51,1.73,6.74,1879.55
25.01,71.52,337.3,-6.59,7.34,9.28,794.45
41.39,78.75,497.15,-9.55,-3.51,1.38,1392.65
39.99,58.61,229.86,1.42,8.69,3.51,499.22
48.98,78.88,299.19,0.35,-3.35,7.27,1731.64
42.83,82.43,176.82,3.79,2.2,-8.95,1866.16
48.52,66.48,212.8,3.0,4.44,8.24,535.73
41.08,79.86,173.71,7.95,-3.09,-4.58,209.86
28.94,66.16,240.98,-0.81,-2.96,-8.86,401.47
23.16,77.13,260.4,-9.83,-0.6,-5.25,1265.66
43.45,80.56,192.23,2.61,6.7,1.73,544.37
39.32,89.68,155.33,3.5,-7.98,-9.04,1277.22
21.45,63.82,293.87,0.43,2.63,-9.98,700.38
30.8,66.44,154.0,3.79,3.55,2.79,1833.67
48.7,56.62,344.68,-3.53,1.16,-0.93,905.2
35.01,58.16,194.32,-7.02,8.72,6.89,995.24
32.98,77.74,282.78,3.29,2.04,-4.85,696.13
33.73,86.68,236.95,-5.1,2.69,-4.39,146.08
26.27,65.78,161.93,-0.87,2.0,-8.45,987.27
31.06,57.19,244.44,-0.17,4.44,0.77,1548.73
31.09,61.4,253.35,-0.46,-7.29,-2.68,1906.03
21.57,68.2,320.94,1.97,7.89,-3.21,153.15
43.03,61.63,296.47,-9.41,-9.15,-0.85,1594.8
32.5,59.34,165.86,9.79,2.81,6.99,534.12
44.67,79.44,191.83,4.33,2.31,-7.9,1645.63
45.51,50.31,212.38,-1.49,-5.84,0.47,684.03
26.36,71.57,173.28,-6.17,-9.19,-6.07,228.87
39.72,81.75,241.38,-8.4,-7.22,-5.75,1224.04
34.17,60.65,346.86,3.44,-4.57,-4.87,1787.81
46.4,74.13,252.92,-3.66,7.64,-0.81,363.18
26.47,76.76,298.38,-5.41,7.11,-0.11,43.61
40.33,76.2,286.59,-2.4,-8.72,7.43,1767.68
38.23,67.83,319.98,1.86,-4.21,7.84,2723.02
28.86,63.86,193.14,3.43,7.79,1.73,1617.39
24.1,83.44,300.77,2.9,-5.27,-4.37,119.68
39.55,80.34,326.27,7.27,9.92,6.37,1780.91
42.16,62.85,184.3,-5.62,-4.86,5.86,838.31
29.47,54.12,219.36,2.73,4.78,5.96,1795.23
39.34,52.87,344.02,-7.98,-1.66,-9.67,129.85
31.85,53.77,306.16,0.96,-7.28,5.08,1769.62
41.4,73.31,206.52,1.68,-4.9,7.05,1346.75
25.98,52.07,262.79,-5.68,3.5,2.1,1108.54
46.71,63.48,230.87,-2.17,-3.26,5.02,123.56
28.62,80.13,247.99,9.84,-6.34,2.45,1376.84
31.03,61.77,221.03,-7.03,-5.89,0.13,1195.55
21.74,80.53,205.87,-1.31,-1.03,6.27,1452.58
23.35,79.82,284.95,8.65,0.24,5.85,1433.43
35.48,59.83,305.71,0.08,-1.74,8.32,887.47
28.03,79.15,324.79,4.5,-6.04,8.43,409.36
45.06,79.91,181.07,6.54,-0.77,0.59,1837.94
20.44,65.9,314.57,-5.92,3.86,-9.37,1851.18
31.37,58.42,200.96,-5.64,9.3,-9.62,423.86
30.12,70.85,235.47,5.17,5.79,8.78,1261.31
20.58,86.86,330.29,5.07,-6.77,-3.25,405.74
23.73,75.58,240.9,-8.8,-4.55,-2.45,1722.45
32.41,56.92,189.41,-3.55,-8.42,-0.6,196.43
34.79,77.31,75.22,-2.03,-7.29,-4.68,1980.39
18.85,67.09,244.6,6.58,-4.99,1.81,1221.72
35.93,73.66,302.53,-1.56,-6.01,5.69,45.83
37.85,79.36,349.44,8.52,-5.73,-4.85,1763.81
20.3,70.6,307.48,9.93,-5.38,4.86,1368.92
33.92,82.56,325.4,5.61,-3.99,3.44,1394.64
48.9,78.89,299.57,3.33,-7.49,0.51,550.06
35.57,74.6,329.09,-2.16,-4.44,-3.49,673.59
40.33,56.03,165.26,-8.66,3.77,7.46,1828.83
29.36,83.44,335.99,1.46,-5.27,-1.94,1269.92
43.22,87.44,229.28,-2.77,-6.56,-2.51,33.91
43.19,55.48,334.32,-2.98,-8.65,2.83,654.81
35.64,69.53,165.15,3.75,-0.0,8.41,1197.09
49.28,60.36,293.05,-0.73,6.84,0.16,296.01
23.77,80.18,297.14,5.04,-8.82,4.45,196.58
20.51,78.87,349.38,-2.04,0.85,-0.86,118.77
43.1,55.64,303.77,-6.98,3.01,-5.62,1261.16
44.21,85.08,226.51,-0.77,1.85,-7.52,641.19
23.61,57.24,261.45,9.02,7.55,-7.27,747.36
27.97,81.89,223.31,6.03,7.33,-9.57,120.08
20.53,68.28,189.2,-5.89,-8.85,1.06,1476.04
28.8,63.13,199.7,-2.17,-2.78,-7.38,1533.51
43.19,56.33,194.4,8.56,3.42,7.31,1658.87
35.54,56.7,259.76,-7.53,9.05,9.66,1303.33
30.44,76.48,331.23,-4.92,6.09,-0.08,1546.58
31.15,72.02,332.55,-4.76,-6.47,-1.01,1154.45
20.04,54.88,160.95,1.42,-4.42,-3.04,983.27
28.99,54.51,165.98,-1.79,5.27,2.76,519.63
39.39,52.89,199.02,-8.4,-0.57,2.16,106.76
49.23,79.75,201.01,2.58,0.95,-3.13,583.64
45.41,78.48,168.98,-8.02,2.18,-3.14,1367.25
20.71,52.34,227.69,2.13,-7.93,2.9,1853.67
46.96,72.41,267.55,0.14,7.12,1.09,512.43
43.5,53.39,265.63,-0.13,7.26,4.37,1339.7
43.41,86.15,258.69,-8.65,-0.64,8.83,956.49
18.85,86.28,217.73,2.78,2.54,5.59,1255.1
31.94,77.93,497.15,-1.37,3.2,-3.91,3.24
29.09,44.56,315.3,-1.78,-6.21,5.18,245.31
21.97,82.46,219.25,1.93,-7.75,-1.0,434.04
26.85,83.14,167.11,2.12,-9.59,5.55,1786.9
27.4,72.79,209.27,-9.7,8.26,7.73,81.06
34.52,62.24,177.47,-7.5,-3.09,-5.0,1139.27
42.42,58.71,243.47,-5.27,-8.28,-5.23,1857.28
34.21,63.09,181.19,3.56,-0.68,-1.35,1304.14
21.74,75.14,242.57,1.53,-8.49,-8.97,968.81
48.73,56.91,194.2,5.15,-8.29,3.71,771.98
48.28,60.35,297.75,-9.9,6.94,-17.57,1248.39
43.56,68.72,155.51,7.06,0.18,-3.09,960.77
49.74,59.32,260.95,-2.46,1.6,-0.69,1410.82
36.33,73.55,183.9,-3.1,3.13,1.81,1235.55
48.88,86.93,150.2,6.62,3.37,-8.53,1134.82
22.27,79.92,323.84,-5.25,-1.34,4.23,1913.62
30.97,76.66,284.31,-0.78,2.87,0.53,1671.38
26.76,73.31,169.79,-6.11,-3.91,2.49,1217.72
25.87,69.52,282.81,8.28,-1.17,4.48,1077.3
24.22,57.46,272.33,-1.84,-2.13,3.51,1447.89
38.67,85.79,244.67,-5.75,-3.42,-8.09,1607.83
43.44,59.94,75.22,3.84,-5.23,5.65,590.47
37.35,53.65,327.41,-5.11,-8.43,2.2,1333.89
24.41,80.0,199.03,8.87,0.12,4.3,270.31
44.33,57.02,229.66,-2.65,0.75,-4.77,860.9
39.08,64.88,215.82,3.29,-3.28,-5.57,1876.87
31.64,51.13,304.24,-3.1,9.52,6.52,652.6
40.22,55.48,333.29,6.14,1.14,-2.19,308.47
27.8,56.93,319.96,7.94,7.78,1.51,292.29
30.36,52.18,309.54,5.76,1.4,1.03,787.46
47.52,95.86,347.36,6.97,-6.2,1.7,450.35
28.72,83.48,289.43,-7.96,9.49,-8.61,853.84
34.1,64.93,75.22,8.48,7.71,-3.95,1437.77
46.7,84.98,346.56,2.49,-0.57,-8.67,1776.32
41.23,58.53,151.4,7.38,-5.14,-0.4,220.33
21.87,63.02,276.81,3.69,-5.55,8.04,1536.82
24.42,56.03,297.79,-5.96,6.12,-2.22,206.96
20.24,74.82,333.57,2.19,-8.62,5.65,758.87
38.93,66.79,326.77,-8.18,2.76,-4.26,1993.1
33.43,74.53,318.39,3.91,2.8,7.13,137.36
24.03,80.47,339.16,-1.82,-6.35,-1.61,45.76
48.74,71.83,257.48,-6.97,4.1,-2.9,667.3
35.89,75.11,151.38,9.58,4.11,3.95,1902.24
27.26,87.41,152.21,8.02,-3.0,0.26,40.08
35.02,61.96,258.93,7.87,-0.33,-3.25,445.42
40.39,64.37,237.05,5.78,6.66,-8.84,1206.32
22.29,78.71,240.25,3.84,0.46,-6.67,467.51
28.24,74.45,230.08,3.1,2.36,5.45,107.62
44.21,57.14,333.55,-7.88,-1.74,8.41,104.89
33.79,65.05,221.83,8.01,-7.01,-6.62,1118.32
36.4,68.71,321.25,7.62,9.96,1.39,1123.79
32.98,66.78,330.57,4.96,0.63,-9.32,1412.95
21.32,57.13,249.9,8.55,-3.27,-4.18,263.48
24.97,86.98,239.39,1.06,4.28,-1.02,999.7
18.85,80.49,302.2,-1.05,2.42,4.72,1201.9
26.28,69.25,291.59,9.36,-5.34,-9.12,444.75
21.5,77.2,215.71,-0.72,7.54,5.62,1094.69
45.31,85.89,170.51,2.83,-8.58,-5.95,1416.48
49.44,55.45,202.97,-2.54,2.11,5.19,1981.68
43.79,60.01,176.21,2.73,-0.44,2.51,1192.85
45.61,71.71,208.95,4.4,-3.64,-3.21,1722.38
27.26,81.96,202.36,2.49,6.53,4.48,1667.35
48.82,51.45,277.54,0.29,3.13,-5.27,1880.53
25.91,89.36,340.9,-4.0,5.19,-5.61,1446.11
48.54,68.2,287.15,2.88,-1.71,-8.77,426.2
49.84,64.37,335.33,8.17,8.85,-2.14,596.18
41.35,61.71,306.83,-9.86,-3.11,-8.05,1569.37
49.43,56.97,295.58,-7.32,0.62,-1.61,1041.65
37.09,81.66,232.81,-7.6,8.67,-9.8,502.62
27.79,88.22,214.96,8.46,-8.34,-6.9,1313.34
33.11,66.55,319.26,3.25,-7.82,8.65,1813.07
37.81,88.1,331.08,9.04,9.88,5.91,715.38
22.19,82.95,240.38,1.66,9.43,-5.28,1192.49
38.67,69.24,151.81,-0.77,5.43,4.37,1163.0
49.44,76.96,308.51,5.85,-0.32,3.37,253.95
25.7,67.4,207.01,-6.78,0.12,-6.46,180.49
43.78,72.35,151.98,-2.37,-4.86,-2.58,1778.85
47.24,52.32,311.0,-0.67,-1.35,8.27,1867.07
48.31,77.85,253.48,-4.03,-1.37,4.77,1808.48
48.8,52.11,287.04,-2.57,-9.28,5.21,793.31
35.64,82.68,332.94,-8.44,-0.94,1.28,575.24
49.32,83.0,258.23,-6.04,-0.4,3.31,1884.34
42.72,59.48,250.64,-3.29,3.32,0.17,1765.6
24.85,62.95,208.13,5.92,0.33,4.82,1639.63
34.31,69.25,211.04,-6.35,7.23,4.65,668.37
41.55,73.87,309.31,-3.07,-2.65,-9.38,1277.49
27.42,61.49,239.81,-8.7,-1.81,2.64,1500.84
39.22,73.7,182.71,1.14,1.43,2.6,1152.31
40.0,61.91,168.91,2.23,-5.95,-8.65,1204.01
24.88,52.22,244.58,7.31,-2.13,-1.79,1513.38
36.95,50.1,242.99,6.38,3.72,7.98,1533.66
43.15,54.05,280.69,-4.29,-1.76,9.07,479.9
34.97,81.69,244.21,-7.26,8.13,5.64,781.35
20.36,88.46,178.7,-6.88,2.31,-6.97,1562.37
20.27,67.08,251.56,9.38,-6.92,-2.51,522.9
30.71,70.51,331.36,3.46,-0.25,-6.35,1831.19
47.79,55.87,181.89,-9.15,5.3,3.04,1677.79
26.86,72.04,287.95,-7.26,2.87,5.46,1790.91
39.03,55.79,268.77,-0.28,7.71,7.68,594.6
26.66,74.45,299.72,-5.84,5.0,7.21,210.23
29.65,87.33,180.12,6.07,-8.77,-8.02,201.18
45.44,57.83,338.32,1.46,-7.75,-7.49,1111.82
41.87,80.58,274.19,2.25,2.99,8.19,611.18
22.86,50.94,319.41,-0.74,-5.23,6.88,527.04
32.86,65.02,199.32,-4.88,1.76,-0.79,444.81
20.88,54.43,297.88,1.79,5.84,-1.4,1124.2
34.43,64.1,306.21,4.34,1.54,1.06,1096.19
39.87,56.94,229.49,-2.58,-1.69,1.93,844.63
23.56,64.93,226.79,0.1,2.93,-4.92,276.88
28.67,66.7,281.56,6.79,-7.13,-1.93,1857.59
31.94,62.02,168.68,-7.03,4.46,2.39,855.87
47.59,76.26,297.12,0.9,3.94,-5.87,247.28
49.8,86.75,158.58,-3.03,0.29,9.98,74.16
21.35,66.02,188.12,4.06,-4.42,-4.34,305.19
